Folder: DASH/Experimental Records and Raw Data/batch3/final500

Note: README.md
# DASH
This is the online repository that stores code, data and supplementary figures of the research work: <Leveraging Data Mining, Active Learning, and Domain Adaptation in a Multi-Stage, Machine Learning-Driven Approach for the Efficient Discovery of Advanced Acidic Oxygen Evolution Electrocatalysts> by Rui Ding et. al. (https://arxiv.org/abs/2407.04877)
![Workflow Schematic](https://github.com/ruiding-uchicago/D.A.S.H./blob/main/Online%20Repository%20Figures/D.A.S.H.%20Workflow.jpg)
## Code Description

Our code is written and uploaded on GitHub in Jupyter notebook file format, which is already very easy to conduct and get results. Our code does not include providing a new python library, but users could track how we train machine learning models in Jupyter ipynb files. Also, we have provided all original dataset CSV files to drive the active learning flow. Additionally, we have detailed the python version and package environment used for this work, focusing on machine learning-related packages.

## Environment
This project was trained using Python version 3.9.12. Below is the list of machine learning-related packages and their versions used in this project on the local machine we used equipped with 2080 Ti GPU, users could install anaconda (https://www.anaconda.com/download) and using pip install to install the packages below for setting environment to run in the Jupyter notebook (https://docs.anaconda.com/ae-notebooks/user-guide/basic-tasks/apps/jupyter/index.html):

absl-py 1.2.0
ase 3.22.1
catboost 1.0.6
cython 0.29.28
dask 2022.2.1
deep-forest 0.1.7
gensim 4.1.2
h5py 3.6.0
keras 2.9.0
Keras-Preprocessing 1.1.2
keras-tcn 3.5.0
lightgbm 3.3.2
matplotlib 3.4.3
numpy 1.23.5
pandas 1.4.2
pytorch-lightning 2.0.1
pymatgen 2023.8.10
scikit-learn 1.0.2
scipy 1.8.0
scikit-opt  0.6.6
scikit-optimize 0.9.0
seaborn 0.11.2
tensorboard                  2.10.1
tensorboard-data-server      0.6.1
tensorboard-plugin-wit       1.8.1
tensorflow-estimator         2.10.0
tensorflow-gpu               2.10.0
tensorflow-io-gcs-filesystem 0.31.0
torch 2.0.0
torchvision 0.15.1
xgboost 1.6.2

File: B3_BEST_500_#2_Full-195mV.txt
Feb. 22, 2023   12:55:43
Linear Sweep Voltammetry
File: d:\current work\al_oer\electrochemical test data\batch 3\500\B3_BEST_500_#2_Full-195mV.txt
Data Source:  Experiment
Instrument Model:  CHI660E
Header:
Note:

Init E (V) = 1.099

Final E (V) = 1.462

Scan Rate (V/s) = 0.010
Sample Interval (V) = 0.001
Quiet Time (sec) = 2
Sensitivity (A/V) = 0.001
Comp R (ohm) = 6.7

Results:

Channel 1:

Potential/V, Current/A
1.099,   1.209e-3
1.101,   9.490e-4
1.103,   7.747e-4
1.105,   6.589e-4
1.107,   5.793e-4
1.109,   5.232e-4
1.111,   4.815e-4
1.113,   4.490e-4
1.115,   4.240e-4
1.117,   4.049e-4
1.119,   3.900e-4
1.121,   3.772e-4
1.123,   3.664e-4
1.125,   3.580e-4
1.127,   3.515e-4
1.129,   3.461e-4
1.131,   3.416e-4
1.133,   3.389e-4
1.135,   3.363e-4
1.137,   3.340e-4
1.139,   3.329e-4
1.141,   3.321e-4
1.143,   3.317e-4
1.145,   3.315e-4
1.147,   3.315e-4
1.149,   3.323e-4
1.151,   3.329e-4
1.153,   3.337e-4
1.155,   3.351e-4
1.157,   3.368e-4
1.159,   3.384e-4
1.161,   3.397e-4
1.163,   3.412e-4
1.165,   3.432e-4
1.167,   3.448e-4
1.169,   3.462e-4
1.171,   3.483e-4
1.173,   3.504e-4
1.175,   3.520e-4
1.177,   3.540e-4
1.179,   3.557e-4
1.181,   3.581e-4
1.183,   3.601e-4
1.185,   3.621e-4
1.187,   3.633e-4
1.189,   3.657e-4
1.191,   3.678e-4
1.193,   3.695e-4
1.195,   3.714e-4
1.197,   3.740e-4
1.199,   3.758e-4
1.201,   3.769e-4
1.203,   3.790e-4
1.205,   3.808e-4
1.207,   3.827e-4
1.209,   3.839e-4
1.211,   3.850e-4
1.213,   3.873e-4
1.215,   3.878e-4
1.217,   3.886e-4
1.219,   3.893e-4
1.221,   3.903e-4
1.223,   3.914e-4
1.225,   3.913e-4
1.227,   3.915e-4
1.229,   3.919e-4
1.231,   3.922e-4
1.233,   3.921e-4
1.235,   3.926e-4
1.237,   3.911e-4
1.239,   3.918e-4
1.241,   3.909e-4
1.243,   3.896e-4
1.245,   3.890e-4
1.247,   3.902e-4
1.249,   3.926e-4
1.251,   3.950e-4
1.253,   3.846e-4
1.255,   3.743e-4
1.257,   3.789e-4
1.259,   3.798e-4
1.261,   3.725e-4
1.263,   3.771e-4
1.265,   3.698e-4
1.267,   3.679e-4
1.269,   3.690e-4
1.271,   3.653e-4
1.273,   3.618e-4
1.275,   3.588e-4
1.277,   3.578e-4
1.279,   3.554e-4
1.281,   3.510e-4
1.283,   3.467e-4
1.285,   3.506e-4
1.287,   3.441e-4
1.289,   3.411e-4
1.291,   3.362e-4
1.293,   3.425e-4
1.295,   3.265e-4
1.297,   3.273e-4
1.299,   3.310e-4
1.301,   3.346e-4
1.303,   3.317e-4
1.305,   3.243e-4
1.307,   3.137e-4
1.309,   3.089e-4
1.311,   3.212e-4
1.313,   3.142e-4
1.315,   3.119e-4
1.317,   3.102e-4
1.319,   3.093e-4
1.321,   3.085e-4
1.323,   3.005e-4
1.325,   3.094e-4
1.327,   3.063e-4
1.329,   3.016e-4
1.331,   3.027e-4
1.333,   3.097e-4
1.335,   2.958e-4
1.337,   3.023e-4
1.339,   3.044e-4
1.341,   3.087e-4
1.343,   2.896e-4
1.345,   3.045e-4
1.347,   3.163e-4
1.349,   3.210e-4
1.351,   3.172e-4
1.353,   3.008e-4
1.355,   3.004e-4
1.357,   3.311e-4
1.359,   3.044e-4
1.361,   3.317e-4
1.363,   3.224e-4
1.365,   3.230e-4
1.367,   3.307e-4
1.369,   3.374e-4
1.371,   3.469e-4
1.373,   3.509e-4
1.375,   3.390e-4
1.377,   3.762e-4
1.379,   3.508e-4
1.381,   4.051e-4
1.383,   3.871e-4
1.385,   3.735e-4
1.387,   3.919e-4
1.389,   4.204e-4
1.391,   4.297e-4
1.393,   4.451e-4
1.395,   5.060e-4
1.397,   5.770e-4
1.399,   5.522e-4
1.401,   6.416e-4
1.403,   6.503e-4
1.405,   7.504e-4
1.407,   7.717e-4
1.409,   8.507e-4
1.411,   9.552e-4
1.413,   1.046e-3
1.415,   1.143e-3
1.417,   1.257e-3
1.419,   1.383e-3
1.421,   1.525e-3
1.423,   1.677e-3
1.425,   1.849e-3
1.427,   2.067e-3
1.429,   2.295e-3
1.431,   2.471e-3
1.433,   2.803e-3
1.435,   2.993e-3
1.437,   3.402e-3
1.439,   3.665e-3
1.441,   3.979e-3
1.443,   4.387e-3
1.445,   4.856e-3
1.447,   5.456e-3
1.449,   5.903e-3
1.451,   6.527e-3
1.453,   7.077e-3
1.455,   8.210e-3
1.457,   9.642e-3
1.459,   1.006e-2
1.461,   1.006e-2
1.462,   1.006e-2

File: B3_BEST_500_#2_High_Quality(#15)-221mV.txt
Feb. 24, 2023   14:34:06
Linear Sweep Voltammetry
File: d:\current work\al_oer\electrochemical test data\batch 3\500\B3_BEST_500_#2_High_Quality(#15)-221mV.txt
Data Source:  Experiment
Instrument Model:  CHI660E
Header:
Note:

Init E (V) = 1.101

Final E (V) = 1.495

Scan Rate (V/s) = 0.010
Sample Interval (V) = 0.001
Quiet Time (sec) = 2
Sensitivity (A/V) = 0.001
Comp R (ohm) = 4.8

Results:

Channel 1:

Potential/V, Current/A
1.101,   9.503e-5
1.103,   9.691e-5
1.105,   8.758e-5
1.107,   8.022e-5
1.109,   7.456e-5
1.111,   7.011e-5
1.113,   6.663e-5
1.115,   6.366e-5
1.117,   6.124e-5
1.119,   5.938e-5
1.121,   5.778e-5
1.123,   5.626e-5
1.125,   5.506e-5
1.127,   5.422e-5
1.129,   5.350e-5
1.131,   5.274e-5
1.133,   5.222e-5
1.135,   5.197e-5
1.137,   5.158e-5
1.139,   5.124e-5
1.141,   5.103e-5
1.143,   5.112e-5
1.145,   5.101e-5
1.147,   5.093e-5
1.149,   5.087e-5
1.151,   5.103e-5
1.153,   5.115e-5
1.155,   5.121e-5
1.157,   5.132e-5
1.159,   5.168e-5
1.161,   5.195e-5
1.163,   5.197e-5
1.165,   5.229e-5
1.167,   5.278e-5
1.169,   5.300e-5
1.171,   5.321e-5
1.173,   5.366e-5
1.175,   5.408e-5
1.177,   5.442e-5
1.179,   5.468e-5
1.181,   5.497e-5
1.183,   5.567e-5
1.185,   5.607e-5
1.187,   5.630e-5
1.189,   5.653e-5
1.191,   5.723e-5
1.193,   5.757e-5
1.195,   5.781e-5
1.197,   5.815e-5
1.199,   5.883e-5
1.201,   5.909e-5
1.203,   5.930e-5
1.205,   5.963e-5
1.207,   6.021e-5
1.209,   6.039e-5
1.211,   6.069e-5
1.213,   6.079e-5
1.215,   6.136e-5
1.217,   6.155e-5
1.219,   6.160e-5
1.221,   6.175e-5
1.223,   6.227e-5
1.225,   6.241e-5
1.227,   6.234e-5
1.229,   6.247e-5
1.231,   6.287e-5
1.233,   6.284e-5
1.235,   6.277e-5
1.237,   6.296e-5
1.239,   6.319e-5
1.241,   6.314e-5
1.243,   6.317e-5
1.245,   6.310e-5
1.247,   6.334e-5
1.249,   6.338e-5
1.251,   6.306e-5
1.253,   6.307e-5
1.255,   6.336e-5
1.257,   6.337e-5
1.259,   6.295e-5
1.261,   6.300e-5
1.263,   6.327e-5
1.265,   6.314e-5
1.267,   6.290e-5
1.269,   6.289e-5
1.271,   6.317e-5
1.273,   6.295e-5
1.275,   6.286e-5
1.277,   6.273e-5
1.279,   6.292e-5
1.281,   6.286e-5
1.283,   6.264e-5
1.285,   6.259e-5
1.287,   6.302e-5
1.289,   6.286e-5
1.291,   6.252e-5
1.293,   6.245e-5
1.295,   6.274e-5
1.297,   6.255e-5
1.299,   6.252e-5
1.301,   6.259e-5
1.303,   6.271e-5
1.305,   6.265e-5
1.307,   6.252e-5
1.309,   6.249e-5
1.311,   6.280e-5
1.313,   6.275e-5
1.315,   6.274e-5
1.317,   6.270e-5
1.319,   6.312e-5
1.321,   6.313e-5
1.323,   6.306e-5
1.325,   6.307e-5
1.327,   6.366e-5
1.329,   6.358e-5
1.331,   6.356e-5
1.333,   6.380e-5
1.335,   6.418e-5
1.337,   6.446e-5
1.339,   6.450e-5
1.341,   6.463e-5
1.343,   6.522e-5
1.345,   6.548e-5
1.347,   6.565e-5
1.349,   6.602e-5
1.351,   6.667e-5
1.353,   6.724e-5
1.355,   6.747e-5
1.357,   6.813e-5
1.359,   6.901e-5
1.361,   6.964e-5
1.363,   7.037e-5
1.365,   7.130e-5
1.367,   7.249e-5
1.369,   7.381e-5
1.371,   7.509e-5
1.373,   7.658e-5
1.375,   7.862e-5
1.377,   8.080e-5
1.379,   8.301e-5
1.381,   8.584e-5
1.383,   8.948e-5
1.385,   9.317e-5
1.387,   9.743e-5
1.389,   1.026e-4
1.391,   1.088e-4
1.393,   1.156e-4
1.395,   1.234e-4
1.397,   1.326e-4
1.399,   1.434e-4
1.401,   1.554e-4
1.403,   1.694e-4
1.405,   1.849e-4
1.407,   2.031e-4
1.409,   2.234e-4
1.411,   2.463e-4
1.413,   2.721e-4
1.415,   3.014e-4
1.417,   3.340e-4
1.419,   3.700e-4
1.421,   4.099e-4
1.423,   4.552e-4
1.425,   5.046e-4
1.427,   5.593e-4
1.429,   6.212e-4
1.431,   6.881e-4
1.433,   7.627e-4
1.435,   8.436e-4
1.437,   9.350e-4
1.439,   1.034e-3
1.441,   1.143e-3
1.443,   1.263e-3
1.445,   1.395e-3
1.447,   1.540e-3
1.449,   1.698e-3
1.451,   1.870e-3
1.453,   2.059e-3
1.455,   2.265e-3
1.457,   2.488e-3
1.459,   2.729e-3
1.461,   2.991e-3
1.463,   3.274e-3
1.465,   3.582e-3
1.467,   3.909e-3
1.469,   4.262e-3
1.471,   4.639e-3
1.473,   5.042e-3
1.475,   5.471e-3
1.477,   5.926e-3
1.479,   6.402e-3
1.481,   6.911e-3
1.483,   7.445e-3
1.485,   7.995e-3
1.487,   8.574e-3
1.489,   9.169e-3
1.491,   9.801e-3
1.493,   1.007e-2
1.495,   1.007e-2

File: B3_BEST_500_#4_Full-238mV.txt
Feb. 22, 2023   13:13:56
Linear Sweep Voltammetry
File: d:\current work\al_oer\electrochemical test data\batch 3\500\B3_BEST_500_#4_Full-238mV.txt
Data Source:  Experiment
Instrument Model:  CHI660E
Header:
Note:

Init E (V) = 1.099

Final E (V) = 1.527

Scan Rate (V/s) = 0.010
Sample Interval (V) = 0.001
Quiet Time (sec) = 2
Sensitivity (A/V) = 0.001
Comp R (ohm) = 5.4

Results:

Channel 1:

Potential/V, Current/A
1.099,   1.371e-4
1.101,   1.284e-4
1.103,   1.148e-4
1.105,   1.039e-4
1.107,   9.536e-5
1.109,   8.839e-5
1.111,   8.255e-5
1.113,   7.772e-5
1.115,   7.350e-5
1.117,   7.015e-5
1.119,   6.721e-5
1.121,   6.449e-5
1.123,   6.218e-5
1.125,   6.032e-5
1.127,   5.855e-5
1.129,   5.696e-5
1.131,   5.566e-5
1.133,   5.460e-5
1.135,   5.354e-5
1.137,   5.246e-5
1.139,   5.170e-5
1.141,   5.107e-5
1.143,   5.040e-5
1.145,   4.991e-5
1.147,   4.925e-5
1.149,   4.899e-5
1.151,   4.858e-5
1.153,   4.815e-5
1.155,   4.795e-5
1.157,   4.776e-5
1.159,   4.754e-5
1.161,   4.736e-5
1.163,   4.721e-5
1.165,   4.731e-5
1.167,   4.719e-5
1.169,   4.706e-5
1.171,   4.714e-5
1.173,   4.723e-5
1.175,   4.722e-5
1.177,   4.722e-5
1.179,   4.728e-5
1.181,   4.742e-5
1.183,   4.756e-5
1.185,   4.757e-5
1.187,   4.766e-5
1.189,   4.786e-5
1.191,   4.799e-5
1.193,   4.796e-5
1.195,   4.802e-5
1.197,   4.837e-5
1.199,   4.840e-5
1.201,   4.833e-5
1.203,   4.847e-5
1.205,   4.864e-5
1.207,   4.863e-5
1.209,   4.880e-5
1.211,   4.866e-5
1.213,   4.878e-5
1.215,   4.879e-5
1.217,   4.872e-5
1.219,   4.868e-5
1.221,   4.878e-5
1.223,   4.878e-5
1.225,   4.861e-5
1.227,   4.849e-5
1.229,   4.866e-5
1.231,   4.858e-5
1.233,   4.836e-5
1.235,   4.839e-5
1.237,   4.831e-5
1.239,   4.814e-5
1.241,   4.810e-5
1.243,   4.787e-5
1.245,   4.791e-5
1.247,   4.782e-5
1.249,   4.752e-5
1.251,   4.746e-5
1.253,   4.749e-5
1.255,   4.736e-5
1.257,   4.712e-5
1.259,   4.698e-5
1.261,   4.717e-5
1.263,   4.688e-5
1.265,   4.671e-5
1.267,   4.662e-5
1.269,   4.662e-5
1.271,   4.642e-5
1.273,   4.634e-5
1.275,   4.614e-5
1.277,   4.622e-5
1.279,   4.607e-5
1.281,   4.589e-5
1.283,   4.582e-5
1.285,   4.584e-5
1.287,   4.584e-5
1.289,   4.566e-5
1.291,   4.557e-5
1.293,   4.582e-5
1.295,   4.571e-5
1.297,   4.554e-5
1.299,   4.568e-5
1.301,   4.575e-5
1.303,   4.576e-5
1.305,   4.576e-5
1.307,   4.567e-5
1.309,   4.592e-5
1.311,   4.605e-5
1.313,   4.592e-5
1.315,   4.615e-5
1.317,   4.635e-5
1.319,   4.644e-5
1.321,   4.635e-5
1.323,   4.653e-5
1.325,   4.702e-5
1.327,   4.702e-5
1.329,   4.702e-5
1.331,   4.732e-5
1.333,   4.754e-5
1.335,   4.763e-5
1.337,   4.781e-5
1.339,   4.794e-5
1.341,   4.829e-5
1.343,   4.850e-5
1.345,   4.857e-5
1.347,   4.885e-5
1.349,   4.920e-5
1.351,   4.948e-5
1.353,   4.966e-5
1.355,   4.992e-5
1.357,   5.043e-5
1.359,   5.067e-5
1.361,   5.086e-5
1.363,   5.143e-5
1.365,   5.196e-5
1.367,   5.233e-5
1.369,   5.280e-5
1.371,   5.331e-5
1.373,   5.414e-5
1.375,   5.481e-5
1.377,   5.545e-5
1.379,   5.632e-5
1.381,   5.748e-5
1.383,   5.861e-5
1.385,   5.978e-5
1.387,   6.128e-5
1.389,   6.325e-5
1.391,   6.504e-5
1.393,   6.718e-5
1.395,   6.968e-5
1.397,   7.259e-5
1.399,   7.575e-5
1.401,   7.960e-5
1.403,   8.362e-5
1.405,   8.866e-5
1.407,   9.389e-5
1.409,   9.977e-5
1.411,   1.068e-4
1.413,   1.149e-4
1.415,   1.239e-4
1.417,   1.340e-4
1.419,   1.454e-4
1.421,   1.589e-4
1.423,   1.737e-4
1.425,   1.903e-4
1.427,   2.094e-4
1.429,   2.311e-4
1.431,   2.556e-4
1.433,   2.833e-4
1.435,   3.147e-4
1.437,   3.506e-4
1.439,   3.908e-4
1.441,   4.362e-4
1.443,   4.877e-4
1.445,   5.457e-4
1.447,   6.108e-4
1.449,   6.834e-4
1.451,   7.648e-4
1.453,   8.564e-4
1.455,   9.572e-4
1.457,   1.068e-3
1.459,   1.190e-3
1.461,   1.325e-3
1.463,   1.471e-3
1.465,   1.630e-3
1.467,   1.810e-3
1.469,   1.997e-3
1.471,   2.197e-3
1.473,   2.415e-3
1.475,   2.637e-3
1.477,   2.892e-3
1.479,   3.137e-3
1.481,   3.381e-3
1.483,   3.653e-3
1.485,   3.895e-3
1.487,   4.188e-3
1.489,   4.469e-3
1.491,   5.057e-3
1.493,   5.599e-3
1.495,   6.007e-3
1.497,   6.312e-3
1.499,   6.677e-3
1.501,   7.010e-3
1.503,   7.173e-3
1.505,   8.147e-3
1.507,   8.701e-3
1.509,   8.605e-3
1.511,   8.823e-3
1.513,   8.938e-3
1.515,   9.569e-3
1.517,   1.006e-2
1.519,   1.006e-2
1.521,   1.006e-2
1.523,   1.006e-2
1.525,   1.006e-2
1.527,   1.006e-2

File: B3_BEST_500_#4_High_Quality(#17)-217mV.txt
Feb. 24, 2023   13:51:14
Linear Sweep Voltammetry
File: d:\current work\al_oer\electrochemical test data\batch 3\500\B3_BEST_500_#4_High_Quality(#17)-217mV.txt
Data Source:  Experiment
Instrument Model:  CHI660E
Header:
Note:

Init E (V) = 1.099

Final E (V) = 1.507

Scan Rate (V/s) = 0.010
Sample Interval (V) = 0.001
Quiet Time (sec) = 2
Sensitivity (A/V) = 0.001
Comp R (ohm) = 4.8

Results:

Channel 1:

Potential/V, Current/A
1.099,   8.119e-5
1.101,   9.627e-5
1.103,   8.921e-5
1.105,   8.374e-5
1.107,   7.965e-5
1.109,   7.649e-5
1.111,   7.400e-5
1.113,   7.192e-5
1.115,   6.969e-5
1.117,   6.850e-5
1.119,   6.727e-5
1.121,   6.603e-5
1.123,   6.513e-5
1.125,   6.466e-5
1.127,   6.405e-5
1.129,   6.337e-5
1.131,   6.282e-5
1.133,   6.271e-5
1.135,   6.237e-5
1.137,   6.196e-5
1.139,   6.177e-5
1.141,   6.180e-5
1.143,   6.167e-5
1.145,   6.151e-5
1.147,   6.136e-5
1.149,   6.269e-5
1.151,   6.232e-5
1.153,   6.170e-5
1.155,   6.175e-5
1.157,   6.197e-5
1.159,   6.192e-5
1.161,   6.185e-5
1.163,   6.182e-5
1.165,   6.210e-5
1.167,   6.217e-5
1.169,   6.210e-5
1.171,   6.236e-5
1.173,   6.249e-5
1.175,   6.267e-5
1.177,   6.269e-5
1.179,   6.275e-5
1.181,   6.320e-5
1.183,   6.347e-5
1.185,   6.337e-5
1.187,   6.350e-5
1.189,   6.388e-5
1.191,   6.409e-5
1.193,   6.397e-5
1.195,   6.403e-5
1.197,   6.452e-5
1.199,   6.464e-5
1.201,   6.449e-5
1.203,   6.466e-5
1.205,   6.496e-5
1.207,   6.516e-5
1.209,   6.560e-5
1.211,   6.518e-5
1.213,   6.567e-5
1.215,   6.554e-5
1.217,   6.542e-5
1.219,   6.543e-5
1.221,   6.570e-5
1.223,   6.602e-5
1.225,   6.575e-5
1.227,   6.568e-5
1.229,   6.599e-5
1.231,   6.606e-5
1.233,   6.591e-5
1.235,   6.601e-5
1.237,   6.611e-5
1.239,   6.616e-5
1.241,   6.600e-5
1.243,   6.585e-5
1.245,   6.627e-5
1.247,   6.620e-5
1.249,   6.593e-5
1.251,   6.579e-5
1.253,   6.607e-5
1.255,   6.596e-5
1.257,   6.578e-5
1.259,   6.568e-5
1.261,   6.598e-5
1.263,   6.585e-5
1.265,   6.570e-5
1.267,   6.563e-5
1.269,   6.579e-5
1.271,   6.583e-5
1.273,   6.571e-5
1.275,   6.552e-5
1.277,   6.579e-5
1.279,   6.565e-5
1.281,   6.544e-5
1.283,   6.530e-5
1.285,   6.555e-5
1.287,   6.579e-5
1.289,   6.542e-5
1.291,   6.532e-5
1.293,   6.566e-5
1.295,   6.564e-5
1.297,   6.548e-5
1.299,   6.551e-5
1.301,   6.579e-5
1.303,   6.585e-5
1.305,   6.560e-5
1.307,   6.554e-5
1.309,   6.600e-5
1.311,   6.603e-5
1.313,   6.593e-5
1.315,   6.600e-5
1.317,   6.634e-5
1.319,   6.647e-5
1.321,   6.642e-5
1.323,   6.643e-5
1.325,   6.715e-5
1.327,   6.720e-5
1.329,   6.709e-5
1.331,   6.736e-5
1.333,   6.777e-5
1.335,   6.802e-5
1.337,   6.814e-5
1.339,   6.835e-5
1.341,   6.893e-5
1.343,   6.923e-5
1.345,   6.936e-5
1.347,   6.978e-5
1.349,   7.051e-5
1.351,   7.100e-5
1.353,   7.118e-5
1.355,   7.179e-5
1.357,   7.275e-5
1.359,   7.343e-5
1.361,   7.396e-5
1.363,   7.496e-5
1.365,   7.627e-5
1.367,   7.724e-5
1.369,   7.860e-5
1.371,   7.984e-5
1.373,   8.197e-5
1.375,   8.398e-5
1.377,   8.604e-5
1.379,   8.875e-5
1.381,   9.210e-5
1.383,   9.583e-5
1.385,   9.999e-5
1.387,   1.050e-4
1.389,   1.112e-4
1.391,   1.181e-4
1.393,   1.260e-4
1.395,   1.352e-4
1.397,   1.464e-4
1.399,   1.592e-4
1.401,   1.739e-4
1.403,   1.906e-4
1.405,   2.102e-4
1.407,   2.327e-4
1.409,   2.582e-4
1.411,   2.872e-4
1.413,   3.208e-4
1.415,   3.584e-4
1.417,   4.000e-4
1.419,   4.473e-4
1.421,   5.003e-4
1.423,   5.589e-4
1.425,   6.239e-4
1.427,   6.968e-4
1.429,   7.763e-4
1.431,   8.631e-4
1.433,   9.590e-4
1.435,   1.065e-3
1.437,   1.179e-3
1.439,   1.302e-3
1.441,   1.438e-3
1.443,   1.583e-3
1.445,   1.742e-3
1.447,   1.911e-3
1.449,   2.093e-3
1.451,   2.284e-3
1.453,   2.490e-3
1.455,   2.710e-3
1.457,   2.944e-3
1.459,   3.203e-3
1.461,   3.465e-3
1.463,   3.729e-3
1.465,   4.032e-3
1.467,   4.357e-3
1.469,   4.649e-3
1.471,   5.052e-3
1.473,   5.362e-3
1.475,   5.710e-3
1.477,   6.053e-3
1.479,   6.448e-3
1.481,   6.831e-3
1.483,   7.287e-3
1.485,   7.650e-3
1.487,   8.092e-3
1.489,   8.581e-3
1.491,   8.999e-3
1.493,   9.387e-3
1.495,   9.965e-3
1.497,   1.007e-2
1.499,   1.007e-2
1.501,   1.007e-2
1.503,   1.007e-2
1.505,   1.007e-2
1.507,   1.007e-2

File: B3_BEST_500_#6_Full-249mV.txt
Feb. 22, 2023   13:32:15
Linear Sweep Voltammetry
File: d:\current work\al_oer\electrochemical test data\batch 3\500\B3_BEST_500_#6_Full-249mV.txt
Data Source:  Experiment
Instrument Model:  CHI660E
Header:
Note:

Init E (V) = 1.099

Final E (V) = 1.592

Scan Rate (V/s) = 0.010
Sample Interval (V) = 0.001
Quiet Time (sec) = 2
Sensitivity (A/V) = 0.001

Results:

Channel 1:

Potential/V, Current/A
1.099,   -1.722e-4
1.101,   -9.824e-5
1.103,   -6.344e-5
1.105,   -3.921e-5
1.107,   -2.077e-5
1.109,   -6.260e-6
1.111,   5.562e-6
1.113,   1.524e-5
1.115,   2.331e-5
1.117,   3.049e-5
1.119,   3.664e-5
1.121,   4.184e-5
1.123,   4.634e-5
1.125,   5.065e-5
1.127,   5.447e-5
1.129,   5.788e-5
1.131,   6.089e-5
1.133,   6.412e-5
1.135,   6.676e-5
1.137,   6.915e-5
1.139,   7.151e-5
1.141,   7.385e-5
1.143,   7.614e-5
1.145,   7.824e-5
1.147,   8.015e-5
1.149,   8.209e-5
1.151,   8.402e-5
1.153,   8.566e-5
1.155,   8.737e-5
1.157,   8.914e-5
1.159,   9.117e-5
1.161,   9.253e-5
1.163,   9.388e-5
1.165,   9.569e-5
1.167,   9.723e-5
1.169,   9.863e-5
1.171,   1.003e-4
1.173,   1.017e-4
1.175,   1.033e-4
1.177,   1.047e-4
1.179,   1.059e-4
1.181,   1.074e-4
1.183,   1.090e-4
1.185,   1.103e-4
1.187,   1.114e-4
1.189,   1.128e-4
1.191,   1.142e-4
1.193,   1.153e-4
1.195,   1.163e-4
1.197,   1.177e-4
1.199,   1.188e-4
1.201,   1.196e-4
1.203,   1.205e-4
1.205,   1.214e-4
1.207,   1.222e-4
1.209,   1.229e-4
1.211,   1.233e-4
1.213,   1.240e-4
1.215,   1.245e-4
1.217,   1.247e-4
1.219,   1.249e-4
1.221,   1.252e-4
1.223,   1.256e-4
1.225,   1.256e-4
1.227,   1.255e-4
1.229,   1.259e-4
1.231,   1.260e-4
1.233,   1.258e-4
1.235,   1.259e-4
1.237,   1.257e-4
1.239,   1.256e-4
1.241,   1.256e-4
1.243,   1.252e-4
1.245,   1.252e-4
1.247,   1.251e-4
1.249,   1.248e-4
1.251,   1.245e-4
1.253,   1.243e-4
1.255,   1.243e-4
1.257,   1.239e-4
1.259,   1.236e-4
1.261,   1.238e-4
1.263,   1.235e-4
1.265,   1.233e-4
1.267,   1.232e-4
1.269,   1.231e-4
1.271,   1.233e-4
1.273,   1.234e-4
1.275,   1.233e-4
1.277,   1.235e-4
1.279,   1.238e-4
1.281,   1.240e-4
1.283,   1.243e-4
1.285,   1.248e-4
1.287,   1.254e-4
1.289,   1.258e-4
1.291,   1.263e-4
1.293,   1.271e-4
1.295,   1.276e-4
1.297,   1.283e-4
1.299,   1.290e-4
1.301,   1.297e-4
1.303,   1.305e-4
1.305,   1.309e-4
1.307,   1.314e-4
1.309,   1.321e-4
1.311,   1.327e-4
1.313,   1.331e-4
1.315,   1.333e-4
1.317,   1.336e-4
1.319,   1.338e-4
1.321,   1.338e-4
1.323,   1.335e-4
1.325,   1.341e-4
1.327,   1.335e-4
1.329,   1.330e-4
1.331,   1.325e-4
1.333,   1.320e-4
1.335,   1.315e-4
1.337,   1.310e-4
1.339,   1.300e-4
1.341,   1.295e-4
1.343,   1.288e-4
1.345,   1.280e-4
1.347,   1.273e-4
1.349,   1.267e-4
1.351,   1.262e-4
1.353,   1.256e-4
1.355,   1.248e-4
1.357,   1.245e-4
1.359,   1.243e-4
1.361,   1.239e-4
1.363,   1.239e-4
1.365,   1.239e-4
1.367,   1.240e-4
1.369,   1.242e-4
1.371,   1.243e-4
1.373,   1.250e-4
1.375,   1.256e-4
1.377,   1.265e-4
1.379,   1.273e-4
1.381,   1.286e-4
1.383,   1.303e-4
1.385,   1.317e-4
1.387,   1.335e-4
1.389,   1.361e-4
1.391,   1.384e-4
1.393,   1.411e-4
1.395,   1.445e-4
1.397,   1.481e-4
1.399,   1.523e-4
1.401,   1.571e-4
1.403,   1.622e-4
1.405,   1.682e-4
1.407,   1.747e-4
1.409,   1.820e-4
1.411,   1.899e-4
1.413,   1.989e-4
1.415,   2.095e-4
1.417,   2.204e-4
1.419,   2.327e-4
1.421,   2.468e-4
1.423,   2.620e-4
1.425,   2.789e-4
1.427,   2.976e-4
1.429,   3.182e-4
1.431,   3.408e-4
1.433,   3.654e-4
1.435,   3.927e-4
1.437,   4.227e-4
1.439,   4.550e-4
1.441,   4.903e-4
1.443,   5.283e-4
1.445,   5.698e-4
1.447,   6.148e-4
1.449,   6.630e-4
1.451,   7.150e-4
1.453,   7.710e-4
1.455,   8.310e-4
1.457,   8.948e-4
1.459,   9.629e-4
1.461,   1.035e-3
1.463,   1.113e-3
1.465,   1.194e-3
1.467,   1.279e-3
1.469,   1.369e-3
1.471,   1.464e-3
1.473,   1.563e-3
1.475,   1.666e-3
1.477,   1.774e-3
1.479,   1.886e-3
1.481,   2.002e-3
1.483,   2.120e-3
1.485,   2.243e-3
1.487,   2.369e-3
1.489,   2.497e-3
1.491,   2.629e-3
1.493,   2.763e-3
1.495,   2.901e-3
1.497,   3.039e-3
1.499,   3.181e-3
1.501,   3.326e-3
1.503,   3.473e-3
1.505,   3.621e-3
1.507,   3.770e-3
1.509,   3.923e-3
1.511,   4.078e-3
1.513,   4.231e-3
1.515,   4.385e-3
1.517,   4.541e-3
1.519,   4.696e-3
1.521,   4.856e-3
1.523,   5.015e-3
1.525,   5.175e-3
1.527,   5.335e-3
1.529,   5.499e-3
1.531,   5.658e-3
1.533,   5.821e-3
1.535,   5.980e-3
1.537,   6.143e-3
1.539,   6.307e-3
1.541,   6.472e-3
1.543,   6.641e-3
1.545,   6.809e-3
1.547,   6.975e-3
1.549,   7.136e-3
1.551,   7.294e-3
1.553,   7.461e-3
1.555,   7.625e-3
1.557,   7.783e-3
1.559,   7.947e-3
1.561,   8.104e-3
1.563,   8.268e-3
1.565,   8.433e-3
1.567,   8.597e-3
1.569,   8.756e-3
1.571,   8.921e-3
1.573,   9.074e-3
1.575,   9.233e-3
1.577,   9.401e-3
1.579,   9.575e-3
1.581,   9.741e-3
1.583,   9.901e-3
1.585,   1.005e-2
1.587,   1.006e-2
1.589,   1.006e-2
1.591,   1.006e-2
1.592,   1.006e-2