Folder: DASH/Experimental Records and Raw Data/batch3/final400 (part 2)

File: B3_BEST_400_#8_High_Quality(#21)-228mV.txt
Feb. 20, 2023   14:35:28
Linear Sweep Voltammetry
File: d:\current work\al_oer\electrochemical test data\batch 3\400\B3_BEST_400_#8_High_Quality(#21)-228mV.txt
Data Source:  Experiment
Instrument Model:  CHI660E
Header:
Note:

Init E (V) = 1.099

Final E (V) = 1.508

Scan Rate (V/s) = 0.010
Sample Interval (V) = 0.001
Quiet Time (sec) = 2
Sensitivity (A/V) = 0.001
Comp R (ohm) = 7.3

Results:

Channel 1:

Potential/V, Current/A
1.099,   2.543e-4
1.101,   2.250e-4
1.103,   1.972e-4
1.105,   1.756e-4
1.107,   1.588e-4
1.109,   1.453e-4
1.111,   1.345e-4
1.113,   1.257e-4
1.115,   1.182e-4
1.117,   1.121e-4
1.119,   1.069e-4
1.121,   1.024e-4
1.123,   9.856e-5
1.125,   9.529e-5
1.127,   9.244e-5
1.129,   8.996e-5
1.131,   8.766e-5
1.133,   8.595e-5
1.135,   8.421e-5
1.137,   8.273e-5
1.139,   8.141e-5
1.141,   8.039e-5
1.143,   7.938e-5
1.145,   7.850e-5
1.147,   7.770e-5
1.149,   7.714e-5
1.151,   7.659e-5
1.153,   7.606e-5
1.155,   7.556e-5
1.157,   7.521e-5
1.159,   7.500e-5
1.161,   7.467e-5
1.163,   7.443e-5
1.165,   7.444e-5
1.167,   7.432e-5
1.169,   7.420e-5
1.171,   7.419e-5
1.173,   7.416e-5
1.175,   7.422e-5
1.177,   7.415e-5
1.179,   7.425e-5
1.181,   7.442e-5
1.183,   7.457e-5
1.185,   7.461e-5
1.187,   7.472e-5
1.189,   7.491e-5
1.191,   7.508e-5
1.193,   7.520e-5
1.195,   7.535e-5
1.197,   7.567e-5
1.199,   7.586e-5
1.201,   7.594e-5
1.203,   7.624e-5
1.205,   7.648e-5
1.207,   7.669e-5
1.209,   7.693e-5
1.211,   7.699e-5
1.213,   7.727e-5
1.215,   7.754e-5
1.217,   7.768e-5
1.219,   7.788e-5
1.221,   7.813e-5
1.223,   7.836e-5
1.225,   7.847e-5
1.227,   7.858e-5
1.229,   7.888e-5
1.231,   7.899e-5
1.233,   7.915e-5
1.235,   7.932e-5
1.237,   7.953e-5
1.239,   7.962e-5
1.241,   7.976e-5
1.243,   7.984e-5
1.245,   7.997e-5
1.247,   8.016e-5
1.249,   8.021e-5
1.251,   8.027e-5
1.253,   8.037e-5
1.255,   8.047e-5
1.257,   8.049e-5
1.259,   8.046e-5
1.261,   8.076e-5
1.263,   8.073e-5
1.265,   8.069e-5
1.267,   8.073e-5
1.269,   8.079e-5
1.271,   8.081e-5
1.273,   8.090e-5
1.275,   8.077e-5
1.277,   8.092e-5
1.279,   8.093e-5
1.281,   8.086e-5
1.283,   8.085e-5
1.285,   8.099e-5
1.287,   8.105e-5
1.289,   8.098e-5
1.291,   8.096e-5
1.293,   8.118e-5
1.295,   8.111e-5
1.297,   8.110e-5
1.299,   8.128e-5
1.301,   8.131e-5
1.303,   8.132e-5
1.305,   8.134e-5
1.307,   8.144e-5
1.309,   8.172e-5
1.311,   8.180e-5
1.313,   8.180e-5
1.315,   8.190e-5
1.317,   8.208e-5
1.319,   8.229e-5
1.321,   8.233e-5
1.323,   8.245e-5
1.325,   8.305e-5
1.327,   8.304e-5
1.329,   8.312e-5
1.331,   8.344e-5
1.333,   8.370e-5
1.335,   8.408e-5
1.337,   8.446e-5
1.339,   8.453e-5
1.341,   8.499e-5
1.343,   8.546e-5
1.345,   8.576e-5
1.347,   8.615e-5
1.349,   8.674e-5
1.351,   8.741e-5
1.353,   8.775e-5
1.355,   8.843e-5
1.357,   8.929e-5
1.359,   9.010e-5
1.361,   9.077e-5
1.363,   9.176e-5
1.365,   9.283e-5
1.367,   9.391e-5
1.369,   9.513e-5
1.371,   9.650e-5
1.373,   9.823e-5
1.375,   1.001e-4
1.377,   1.019e-4
1.379,   1.041e-4
1.381,   1.068e-4
1.383,   1.097e-4
1.385,   1.129e-4
1.387,   1.166e-4
1.389,   1.211e-4
1.391,   1.258e-4
1.393,   1.313e-4
1.395,   1.376e-4
1.397,   1.449e-4
1.399,   1.532e-4
1.401,   1.627e-4
1.403,   1.733e-4
1.405,   1.856e-4
1.407,   1.992e-4
1.409,   2.149e-4
1.411,   2.325e-4
1.413,   2.525e-4
1.415,   2.750e-4
1.417,   2.996e-4
1.419,   3.276e-4
1.421,   3.588e-4
1.423,   3.931e-4
1.425,   4.310e-4
1.427,   4.729e-4
1.429,   5.186e-4
1.431,   5.695e-4
1.433,   6.252e-4
1.435,   6.854e-4
1.437,   7.522e-4
1.439,   8.249e-4
1.441,   9.037e-4
1.443,   9.902e-4
1.445,   1.083e-3
1.447,   1.183e-3
1.449,   1.292e-3
1.451,   1.410e-3
1.453,   1.535e-3
1.455,   1.671e-3
1.457,   1.817e-3
1.459,   1.979e-3
1.461,   2.146e-3
1.463,   2.321e-3
1.465,   2.512e-3
1.467,   2.726e-3
1.469,   2.944e-3
1.471,   3.165e-3
1.473,   3.395e-3
1.475,   3.640e-3
1.477,   3.962e-3
1.479,   4.218e-3
1.481,   4.514e-3
1.483,   4.832e-3
1.485,   5.138e-3
1.487,   5.448e-3
1.489,   5.841e-3
1.491,   6.320e-3
1.493,   6.688e-3
1.495,   7.106e-3
1.497,   7.490e-3
1.499,   7.989e-3
1.501,   8.322e-3
1.503,   8.671e-3
1.505,   9.318e-3
1.507,   1.005e-2
1.508,   1.006e-2

File: B3_VARIANCE_400_#1_Full(#9)-294mV.txt
Feb. 20, 2023   15:52:43
Linear Sweep Voltammetry
File: d:\current work\al_oer\electrochemical test data\batch 3\400\B3_VARIANCE_400_#1_Full(#9)-294mV.txt
Data Source:  Experiment
Instrument Model:  CHI660E
Header:
Note:

Init E (V) = 1.023

Final E (V) = 1.532

Scan Rate (V/s) = 0.010
Sample Interval (V) = 0.001
Quiet Time (sec) = 2
Sensitivity (A/V) = 0.001

Results:

Channel 1:

Potential/V, Current/A
1.023,   -2.589E-06
1.025,   9.266E-07
1.027,   2.216E-06
1.029,   3.128E-06
1.031,   3.850E-06
1.033,   4.274E-06
1.035,   4.983E-06
1.037,   5.330E-06
1.039,   5.923E-06
1.041,   6.394E-06
1.043,   6.686E-06
1.045,   6.887E-06
1.047,   7.202E-06
1.049,   7.531E-06
1.051,   7.874E-06
1.053,   7.969E-06
1.055,   8.317E-06
1.057,   8.549E-06
1.059,   8.696E-06
1.061,   9.002E-06
1.063,   9.239E-06
1.065,   9.330E-06
1.067,   9.463E-06
1.069,   9.760E-06
1.071,   9.915E-06
1.073,   9.942E-06
1.075,   1.004E-05
1.077,   1.028E-05
1.079,   1.041E-05
1.081,   1.051E-05
1.083,   1.071E-05
1.085,   1.089E-05
1.087,   1.074E-05
1.089,   1.108E-05
1.091,   1.138E-05
1.093,   1.129E-05
1.095,   1.149E-05
1.097,   1.145E-05
1.099,   1.167E-05
1.101,   1.189E-05
1.103,   1.203E-05
1.105,   1.213E-05
1.107,   1.235E-05
1.109,   1.239E-05
1.111,   1.243E-05
1.113,   1.280E-05
1.115,   1.260E-05
1.117,   1.289E-05
1.119,   1.297E-05
1.121,   1.313E-05
1.123,   1.345E-05
1.125,   1.342E-05
1.127,   1.371E-05
1.129,   1.380E-05
1.131,   1.398E-05
1.133,   1.397E-05
1.135,   1.401E-05
1.137,   1.430E-05
1.139,   1.438E-05
1.141,   1.462E-05
1.143,   1.485E-05
1.145,   1.484E-05
1.147,   1.505E-05
1.149,   1.519E-05
1.151,   1.520E-05
1.153,   1.552E-05
1.155,   1.558E-05
1.157,   1.572E-05
1.159,   1.577E-05
1.161,   1.608E-05
1.163,   1.612E-05
1.165,   1.648E-05
1.167,   1.647E-05
1.169,   1.670E-05
1.171,   1.676E-05
1.173,   1.702E-05
1.175,   1.715E-05
1.177,   1.735E-05
1.179,   1.742E-05
1.181,   1.766E-05
1.183,   1.774E-05
1.185,   1.808E-05
1.187,   1.819E-05
1.189,   1.860E-05
1.191,   1.862E-05
1.193,   1.891E-05
1.195,   1.897E-05
1.197,   1.930E-05
1.199,   1.932E-05
1.201,   1.952E-05
1.203,   1.967E-05
1.205,   2.022E-05
1.207,   2.031E-05
1.209,   2.060E-05
1.211,   2.079E-05
1.213,   2.088E-05
1.215,   2.104E-05
1.217,   2.148E-05
1.219,   2.166E-05
1.221,   2.183E-05
1.223,   2.215E-05
1.225,   2.250E-05
1.227,   2.265E-05
1.229,   2.285E-05
1.231,   2.293E-05
1.233,   2.355E-05
1.235,   2.344E-05
1.237,   2.375E-05
1.239,   2.418E-05
1.241,   2.444E-05
1.243,   2.463E-05
1.245,   2.503E-05
1.247,   2.524E-05
1.249,   2.549E-05
1.251,   2.583E-05
1.253,   2.604E-05
1.255,   2.647E-05
1.257,   2.692E-05
1.259,   2.701E-05
1.261,   2.747E-05
1.263,   2.772E-05
1.265,   2.815E-05
1.267,   2.840E-05
1.269,   2.901E-05
1.271,   2.910E-05
1.273,   2.948E-05
1.275,   2.985E-05
1.277,   3.037E-05
1.279,   3.073E-05
1.281,   3.115E-05
1.283,   3.148E-05
1.285,   3.206E-05
1.287,   3.259E-05
1.289,   3.292E-05
1.291,   3.356E-05
1.293,   3.392E-05
1.295,   3.436E-05
1.297,   3.504E-05
1.299,   3.568E-05
1.301,   3.631E-05
1.303,   3.706E-05
1.305,   3.769E-05
1.307,   3.844E-05
1.309,   3.934E-05
1.311,   4.025E-05
1.313,   4.156E-05
1.315,   4.269E-05
1.317,   4.382E-05
1.319,   4.523E-05
1.321,   4.686E-05
1.323,   4.846E-05
1.325,   5.047E-05
1.327,   5.252E-05
1.329,   5.490E-05
1.331,   5.718E-05
1.333,   6.019E-05
1.335,   6.325E-05
1.337,   6.677E-05
1.339,   7.074E-05
1.341,   7.504E-05
1.343,   7.956E-05
1.345,   8.463E-05
1.347,   9.038E-05
1.349,   9.668E-05
1.351,   1.034E-04
1.353,   1.109E-04
1.355,   1.191E-04
1.357,   1.277E-04
1.359,   1.372E-04
1.361,   1.476E-04
1.363,   1.587E-04
1.365,   1.708E-04
1.367,   1.830E-04
1.369,   1.970E-04
1.371,   2.117E-04
1.373,   2.274E-04
1.375,   2.444E-04
1.377,   2.621E-04
1.379,   2.809E-04
1.381,   3.010E-04
1.383,   3.221E-04
1.385,   3.443E-04
1.387,   3.682E-04
1.389,   3.928E-04
1.391,   4.185E-04
1.393,   4.450E-04
1.395,   4.731E-04
1.397,   5.024E-04
1.399,   5.321E-04
1.401,   5.636E-04
1.403,   5.960E-04
1.405,   6.284E-04
1.407,   6.622E-04
1.409,   6.974E-04
1.411,   7.339E-04
1.413,   7.709E-04
1.415,   8.084E-04
1.417,   8.463E-04
1.419,   8.846E-04
1.421,   9.230E-04
1.423,   9.623E-04
1.425,   1.002E-03
1.427,   1.041E-03
1.429,   1.081E-03
1.431,   1.121E-03
1.433,   1.161E-03
1.435,   1.201E-03
1.437,   1.240E-03
1.439,   1.276E-03
1.441,   1.314E-03
1.443,   1.351E-03
1.445,   1.387E-03
1.447,   1.423E-03
1.449,   1.458E-03
1.451,   1.491E-03
1.453,   1.523E-03
1.455,   1.554E-03
1.457,   1.584E-03
1.459,   1.612E-03
1.461,   1.638E-03
1.463,   1.665E-03
1.465,   1.689E-03
1.467,   1.713E-03
1.469,   1.735E-03
1.471,   1.756E-03
1.473,   1.776E-03
1.475,   1.794E-03
1.477,   1.811E-03
1.479,   1.827E-03
1.481,   1.840E-03
1.483,   1.855E-03
1.485,   1.867E-03
1.487,   1.878E-03
1.489,   1.889E-03
1.491,   1.900E-03
1.493,   1.908E-03
1.495,   1.915E-03
1.497,   1.921E-03
1.499,   1.927E-03
1.501,   1.933E-03
1.503,   1.938E-03
1.505,   1.941E-03
1.507,   1.946E-03
1.509,   1.950E-03
1.511,   1.952E-03
1.513,   1.954E-03
1.515,   1.957E-03
1.517,   1.956E-03
1.519,   1.958E-03
1.521,   1.960E-03
1.523,   1.960E-03
1.525,   1.962E-03
1.527,   1.962E-03
1.529,   1.961E-03
1.531,   1.961E-03
1.532,   1.960E-03

File: B3_VARIANCE_400_#2_Full(#10)-282mV.txt
Feb. 21, 2023   15:53:14
Linear Sweep Voltammetry
File: d:\current work\al_oer\electrochemical test data\batch 3\400\B3_VARIANCE_400_#2_Full(#10)-282mV.txt
Data Source:  Experiment
Instrument Model:  CHI660E
Header:
Note:

Init E (V) = 1.087

Final E (V) = 1.616

Scan Rate (V/s) = 0.010
Sample Interval (V) = 0.001
Quiet Time (sec) = 2
Sensitivity (A/V) = 0.001
Comp R (ohm) = 5.2

Results:

Channel 1:

Potential/V, Current/A
1.087,   2.372e-5
1.089,   2.165e-5
1.091,   1.947e-5
1.093,   1.778e-5
1.095,   1.643e-5
1.097,   1.530e-5
1.099,   1.435e-5
1.101,   1.354e-5
1.103,   1.283e-5
1.105,   1.223e-5
1.107,   1.171e-5
1.109,   1.122e-5
1.111,   1.080e-5
1.113,   1.043e-5
1.115,   1.010e-5
1.117,   9.793e-6
1.119,   9.490e-6
1.121,   9.266e-6
1.123,   9.024e-6
1.125,   8.809e-6
1.127,   8.613e-6
1.129,   8.454e-6
1.131,   8.292e-6
1.133,   8.165e-6
1.135,   8.011e-6
1.137,   7.911e-6
1.139,   7.807e-6
1.141,   7.716e-6
1.143,   7.604e-6
1.145,   7.522e-6
1.147,   7.435e-6
1.149,   7.360e-6
1.151,   7.267e-6
1.153,   7.202e-6
1.155,   7.146e-6
1.157,   7.095e-6
1.159,   7.050e-6
1.161,   6.988e-6
1.163,   6.919e-6
1.165,   6.895e-6
1.167,   6.844e-6
1.169,   6.823e-6
1.171,   6.767e-6
1.173,   6.738e-6
1.175,   6.711e-6
1.177,   6.682e-6
1.179,   6.662e-6
1.181,   6.642e-6
1.183,   6.615e-6
1.185,   6.607e-6
1.187,   6.585e-6
1.189,   6.532e-6
1.191,   6.511e-6
1.193,   6.521e-6
1.195,   6.505e-6
1.197,   6.496e-6
1.199,   6.478e-6
1.201,   6.494e-6
1.203,   6.492e-6
1.205,   6.448e-6
1.207,   6.426e-6
1.209,   6.434e-6
1.211,   6.436e-6
1.213,   6.424e-6
1.215,   6.418e-6
1.217,   6.454e-6
1.219,   6.417e-6
1.221,   6.436e-6
1.223,   6.428e-6
1.225,   6.432e-6
1.227,   6.449e-6
1.229,   6.457e-6
1.231,   6.442e-6
1.233,   6.481e-6
1.235,   6.475e-6
1.237,   6.460e-6
1.239,   6.486e-6
1.241,   6.479e-6
1.243,   6.494e-6
1.245,   6.480e-6
1.247,   6.507e-6
1.249,   6.514e-6
1.251,   6.531e-6
1.253,   6.543e-6
1.255,   6.552e-6
1.257,   6.557e-6
1.259,   6.546e-6
1.261,   6.568e-6
1.263,   6.552e-6
1.265,   6.583e-6
1.267,   6.586e-6
1.269,   6.611e-6
1.271,   6.595e-6
1.273,   6.666e-6
1.275,   6.664e-6
1.277,   6.679e-6
1.279,   6.703e-6
1.281,   6.724e-6
1.283,   6.735e-6
1.285,   6.767e-6
1.287,   6.770e-6
1.289,   6.759e-6
1.291,   6.795e-6
1.293,   6.844e-6
1.295,   6.840e-6
1.297,   6.897e-6
1.299,   6.908e-6
1.301,   6.932e-6
1.303,   6.969e-6
1.305,   6.949e-6
1.307,   6.995e-6
1.309,   6.996e-6
1.311,   7.024e-6
1.313,   7.119e-6
1.315,   7.078e-6
1.317,   7.146e-6
1.319,   7.183e-6
1.321,   7.230e-6
1.323,   7.264e-6
1.325,   7.314e-6
1.327,   7.337e-6
1.329,   7.375e-6
1.331,   7.436e-6
1.333,   7.493e-6
1.335,   7.526e-6
1.337,   7.568e-6
1.339,   7.617e-6
1.341,   7.685e-6
1.343,   7.742e-6
1.345,   7.808e-6
1.347,   7.893e-6
1.349,   7.952e-6
1.351,   8.051e-6
1.353,   8.147e-6
1.355,   8.242e-6
1.357,   8.351e-6
1.359,   8.491e-6
1.361,   8.622e-6
1.363,   8.763e-6
1.365,   8.981e-6
1.367,   9.183e-6
1.369,   9.403e-6
1.371,   9.677e-6
1.373,   9.981e-6
1.375,   1.034e-5
1.377,   1.074e-5
1.379,   1.120e-5
1.381,   1.169e-5
1.383,   1.227e-5
1.385,   1.295e-5
1.387,   1.370e-5
1.389,   1.457e-5
1.391,   1.554e-5
1.393,   1.668e-5
1.395,   1.788e-5
1.397,   1.926e-5
1.399,   2.085e-5
1.401,   2.262e-5
1.403,   2.461e-5
1.405,   2.685e-5
1.407,   2.922e-5
1.409,   3.199e-5
1.411,   3.502e-5
1.413,   3.820e-5
1.415,   4.189e-5
1.417,   4.592e-5
1.419,   5.035e-5
1.421,   5.523e-5
1.423,   6.056e-5
1.425,   6.638e-5
1.427,   7.275e-5
1.429,   7.982e-5
1.431,   8.741e-5
1.433,   9.573e-5
1.435,   1.048e-4
1.437,   1.147e-4
1.439,   1.255e-4
1.441,   1.372e-4
1.443,   1.499e-4
1.445,   1.639e-4
1.447,   1.788e-4
1.449,   1.951e-4
1.451,   2.126e-4
1.453,   2.318e-4
1.455,   2.525e-4
1.457,   2.749e-4
1.459,   2.990e-4
1.461,   3.252e-4
1.463,   3.531e-4
1.465,   3.831e-4
1.467,   4.157e-4
1.469,   4.504e-4
1.471,   4.877e-4
1.473,   5.277e-4
1.475,   5.702e-4
1.477,   6.155e-4
1.479,   6.640e-4
1.481,   7.150e-4
1.483,   7.687e-4
1.485,   8.258e-4
1.487,   8.864e-4
1.489,   9.502e-4
1.491,   1.017e-3
1.493,   1.087e-3
1.495,   1.160e-3
1.497,   1.237e-3
1.499,   1.317e-3
1.501,   1.399e-3
1.503,   1.484e-3
1.505,   1.572e-3
1.507,   1.663e-3
1.509,   1.753e-3
1.511,   1.847e-3
1.513,   1.945e-3
1.515,   2.046e-3
1.517,   2.148e-3
1.519,   2.254e-3
1.521,   2.361e-3
1.523,   2.470e-3
1.525,   2.585e-3
1.527,   2.697e-3
1.529,   2.810e-3
1.531,   2.926e-3
1.533,   3.046e-3
1.535,   3.160e-3
1.537,   3.272e-3
1.539,   3.384e-3
1.541,   3.497e-3
1.543,   3.603e-3
1.545,   3.714e-3
1.547,   3.823e-3
1.549,   3.929e-3
1.551,   4.035e-3
1.553,   4.146e-3
1.555,   4.252e-3
1.557,   4.366e-3
1.559,   4.471e-3
1.561,   4.568e-3
1.563,   4.688e-3
1.565,   4.788e-3
1.567,   4.886e-3
1.569,   4.982e-3
1.571,   5.087e-3
1.573,   5.191e-3
1.575,   5.273e-3
1.577,   5.360e-3
1.579,   5.456e-3
1.581,   5.541e-3
1.583,   5.621e-3
1.585,   5.679e-3
1.587,   5.754e-3
1.589,   5.822e-3
1.591,   5.876e-3
1.593,   5.989e-3
1.595,   6.059e-3
1.597,   6.094e-3
1.599,   6.105e-3
1.601,   6.145e-3
1.603,   6.168e-3
1.605,   6.175e-3
1.607,   6.191e-3
1.609,   6.182e-3
1.611,   6.181e-3
1.613,   6.201e-3
1.615,   6.214e-3
1.616,   6.192e-3

File: B3_VARIANCE_400_#4_Full(#12)-273mV.txt
Feb. 21, 2023   16:03:47
Linear Sweep Voltammetry
File: d:\current work\al_oer\electrochemical test data\batch 3\400\B3_VARIANCE_400_#4_Full(#12)-273mV.txt
Data Source:  Experiment
Instrument Model:  CHI660E
Header:
Note:

Init E (V) = 1.090

Final E (V) = 1.789

Scan Rate (V/s) = 0.010
Sample Interval (V) = 0.001
Quiet Time (sec) = 2
Sensitivity (A/V) = 0.001
Comp R (ohm) = 5.2

Results:

Channel 1:
Ep = 1.466V
ip = 8.140e-3A
Ah = 1.825e-1C

Potential/V, Current/A
1.090,   4.797e-5
1.093,   3.970e-5
1.096,   3.331e-5
1.099,   2.869e-5
1.102,   2.532e-5
1.105,   2.279e-5
1.108,   2.077e-5
1.111,   1.925e-5
1.114,   1.799e-5
1.117,   1.694e-5
1.120,   1.617e-5
1.123,   1.547e-5
1.126,   1.488e-5
1.129,   1.439e-5
1.132,   1.395e-5
1.135,   1.361e-5
1.138,   1.333e-5
1.141,   1.308e-5
1.144,   1.284e-5
1.147,   1.266e-5
1.150,   1.253e-5
1.153,   1.239e-5
1.156,   1.231e-5
1.159,   1.219e-5
1.162,   1.210e-5
1.165,   1.205e-5
1.168,   1.196e-5
1.171,   1.193e-5
1.174,   1.192e-5
1.177,   1.188e-5
1.180,   1.187e-5
1.183,   1.184e-5
1.186,   1.183e-5
1.189,   1.185e-5
1.192,   1.183e-5
1.195,   1.187e-5
1.198,   1.190e-5
1.201,   1.190e-5
1.204,   1.193e-5
1.207,   1.194e-5
1.210,   1.195e-5
1.213,   1.199e-5
1.216,   1.203e-5
1.219,   1.206e-5
1.222,   1.211e-5
1.225,   1.213e-5
1.228,   1.216e-5
1.231,   1.219e-5
1.234,   1.225e-5
1.237,   1.225e-5
1.240,   1.231e-5
1.243,   1.234e-5
1.246,   1.244e-5
1.249,   1.243e-5
1.252,   1.251e-5
1.255,   1.254e-5
1.258,   1.256e-5
1.261,   1.259e-5
1.264,   1.270e-5
1.267,   1.274e-5
1.270,   1.278e-5
1.273,   1.283e-5
1.276,   1.286e-5
1.279,   1.294e-5
1.282,   1.296e-5
1.285,   1.306e-5
1.288,   1.313e-5
1.291,   1.317e-5
1.294,   1.327e-5
1.297,   1.334e-5
1.300,   1.340e-5
1.303,   1.352e-5
1.306,   1.358e-5
1.309,   1.363e-5
1.312,   1.372e-5
1.315,   1.388e-5
1.318,   1.394e-5
1.321,   1.403e-5
1.324,   1.414e-5
1.327,   1.423e-5
1.330,   1.433e-5
1.333,   1.447e-5
1.336,   1.457e-5
1.339,   1.478e-5
1.342,   1.496e-5
1.345,   1.515e-5
1.348,   1.535e-5
1.351,   1.555e-5
1.354,   1.582e-5
1.357,   1.614e-5
1.360,   1.652e-5
1.363,   1.690e-5
1.366,   1.747e-5
1.369,   1.803e-5
1.372,   1.877e-5
1.375,   1.963e-5
1.378,   2.074e-5
1.381,   2.204e-5
1.384,   2.365e-5
1.387,   2.564e-5
1.390,   2.798e-5
1.393,   3.089e-5
1.396,   3.430e-5
1.399,   3.828e-5
1.402,   4.304e-5
1.405,   4.875e-5
1.408,   5.534e-5
1.411,   6.310e-5
1.414,   7.200e-5
1.417,   8.237e-5
1.420,   9.405e-5
1.423,   1.074e-4
1.426,   1.226e-4
1.429,   1.397e-4
1.432,   1.591e-4
1.435,   1.808e-4
1.438,   2.050e-4
1.441,   2.323e-4
1.444,   2.628e-4
1.447,   2.966e-4
1.450,   3.343e-4
1.453,   3.760e-4
1.456,   4.223e-4
1.459,   4.735e-4
1.462,   5.296e-4
1.465,   5.915e-4
1.468,   6.591e-4
1.471,   7.328e-4
1.474,   8.124e-4
1.477,   8.979e-4
1.480,   9.896e-4
1.483,   1.088e-3
1.486,   1.192e-3
1.489,   1.303e-3
1.492,   1.420e-3
1.495,   1.543e-3
1.498,   1.673e-3
1.501,   1.809e-3
1.504,   1.951e-3
1.507,   2.098e-3
1.510,   2.250e-3
1.513,   2.409e-3
1.516,   2.571e-3
1.519,   2.738e-3
1.522,   2.911e-3
1.525,   3.085e-3
1.528,   3.261e-3
1.531,   3.441e-3
1.534,   3.626e-3
1.537,   3.811e-3
1.540,   3.999e-3
1.543,   4.189e-3
1.546,   4.384e-3
1.549,   4.579e-3
1.552,   4.771e-3
1.555,   4.969e-3
1.558,   5.168e-3
1.561,   5.360e-3
1.564,   5.546e-3
1.567,   5.740e-3
1.570,   5.930e-3
1.573,   6.109e-3
1.576,   6.283e-3
1.579,   6.465e-3
1.582,   6.628e-3
1.585,   6.789e-3
1.588,   6.953e-3
1.591,   7.098e-3
1.594,   7.242e-3
1.597,   7.383e-3
1.600,   7.509e-3
1.603,   7.640e-3
1.606,   7.762e-3
1.609,   7.863e-3
1.612,   7.981e-3
1.615,   8.064e-3
1.618,   8.158e-3
1.621,   8.278e-3
1.624,   8.315e-3
1.627,   8.354e-3
1.630,   8.412e-3
1.633,   8.449e-3
1.636,   8.470e-3
1.639,   8.491e-3
1.642,   8.498e-3
1.645,   8.503e-3
1.648,   8.511e-3
1.651,   8.498e-3
1.654,   8.589e-3
1.657,   8.549e-3
1.660,   8.501e-3
1.663,   8.452e-3
1.666,   8.385e-3
1.669,   8.437e-3
1.672,   8.434e-3
1.675,   8.307e-3
1.678,   8.200e-3
1.681,   8.085e-3
1.684,   7.974e-3
1.687,   7.859e-3
1.690,   7.749e-3
1.693,   7.643e-3
1.696,   7.555e-3
1.699,   7.522e-3
1.702,   7.379e-3
1.705,   7.239e-3
1.708,   7.097e-3
1.711,   6.960e-3
1.714,   6.823e-3
1.717,   6.687e-3
1.720,   6.547e-3
1.723,   6.411e-3
1.726,   6.274e-3
1.729,   6.133e-3
1.732,   5.996e-3
1.735,   5.857e-3
1.738,   5.718e-3
1.741,   5.581e-3
1.744,   5.446e-3
1.747,   5.309e-3
1.750,   5.177e-3
1.753,   5.045e-3
1.756,   4.912e-3
1.759,   4.780e-3
1.762,   4.651e-3
1.765,   4.523e-3
1.768,   4.400e-3
1.771,   4.274e-3
1.774,   4.150e-3
1.777,   4.025e-3
1.780,   3.910e-3
1.783,   3.792e-3
1.786,   3.675e-3
1.789,   3.573e-3

File: B3_VARIANCE_400_#4_High_Quality(#25)-237mV.txt
Feb. 20, 2023   15:09:46
Linear Sweep Voltammetry
File: d:\current work\al_oer\electrochemical test data\batch 3\400\B3_VARIANCE_400_#4_High_Quality(#25)-237mV.txt
Data Source:  Experiment
Instrument Model:  CHI660E
Header:
Note:

Init E (V) = 1.099

Final E (V) = 1.513

Scan Rate (V/s) = 0.010
Sample Interval (V) = 0.001
Quiet Time (sec) = 2
Sensitivity (A/V) = 0.001
Comp R (ohm) = 6.1

Results:

Channel 1:

Potential/V, Current/A
1.099,   1.921e-4
1.101,   1.718e-4
1.103,   1.538e-4
1.105,   1.392e-4
1.107,   1.276e-4
1.109,   1.179e-4
1.111,   1.098e-4
1.113,   1.030e-4
1.115,   9.711e-5
1.117,   9.209e-5
1.119,   8.773e-5
1.121,   8.383e-5
1.123,   8.046e-5
1.125,   7.753e-5
1.127,   7.473e-5
1.129,   7.234e-5
1.131,   7.023e-5
1.133,   6.835e-5
1.135,   6.663e-5
1.137,   6.506e-5
1.139,   6.366e-5
1.141,   6.242e-5
1.143,   6.128e-5
1.145,   6.030e-5
1.147,   5.931e-5
1.149,   5.849e-5
1.151,   5.776e-5
1.153,   5.706e-5
1.155,   5.645e-5
1.157,   5.591e-5
1.159,   5.544e-5
1.161,   5.495e-5
1.163,   5.456e-5
1.165,   5.432e-5
1.167,   5.394e-5
1.169,   5.366e-5
1.171,   5.344e-5
1.173,   5.318e-5
1.175,   5.303e-5
1.177,   5.288e-5
1.179,   5.272e-5
1.181,   5.267e-5
1.183,   5.262e-5
1.185,   5.252e-5
1.187,   5.248e-5
1.189,   5.247e-5
1.191,   5.250e-5
1.193,   5.252e-5
1.195,   5.248e-5
1.197,   5.268e-5
1.199,   5.269e-5
1.201,   5.271e-5
1.203,   5.284e-5
1.205,   5.288e-5
1.207,   5.304e-5
1.209,   5.315e-5
1.211,   5.322e-5
1.213,   5.338e-5
1.215,   5.358e-5
1.217,   5.368e-5
1.219,   5.382e-5
1.221,   5.398e-5
1.223,   5.417e-5
1.225,   5.422e-5
1.227,   5.438e-5
1.229,   5.464e-5
1.231,   5.475e-5
1.233,   5.489e-5
1.235,   5.510e-5
1.237,   5.523e-5
1.239,   5.545e-5
1.241,   5.561e-5
1.243,   5.574e-5
1.245,   5.596e-5
1.247,   5.613e-5
1.249,   5.624e-5
1.251,   5.642e-5
1.253,   5.665e-5
1.255,   5.682e-5
1.257,   5.697e-5
1.259,   5.718e-5
1.261,   5.744e-5
1.263,   5.760e-5
1.265,   5.774e-5
1.267,   5.794e-5
1.269,   5.816e-5
1.271,   5.840e-5
1.273,   5.864e-5
1.275,   5.883e-5
1.277,   5.908e-5
1.279,   5.927e-5
1.281,   5.951e-5
1.283,   5.972e-5
1.285,   6.002e-5
1.287,   6.027e-5
1.289,   6.046e-5
1.291,   6.071e-5
1.293,   6.102e-5
1.295,   6.130e-5
1.297,   6.158e-5
1.299,   6.186e-5
1.301,   6.215e-5
1.303,   6.248e-5
1.305,   6.280e-5
1.307,   6.305e-5
1.309,   6.348e-5
1.311,   6.383e-5
1.313,   6.418e-5
1.315,   6.457e-5
1.317,   6.504e-5
1.319,   6.544e-5
1.321,   6.586e-5
1.323,   6.619e-5
1.325,   6.679e-5
1.327,   6.725e-5
1.329,   6.768e-5
1.331,   6.819e-5
1.333,   6.874e-5
1.335,   6.925e-5
1.337,   6.986e-5
1.339,   7.035e-5
1.341,   7.098e-5
1.343,   7.163e-5
1.345,   7.229e-5
1.347,   7.302e-5
1.349,   7.373e-5
1.351,   7.455e-5
1.353,   7.538e-5
1.355,   7.624e-5
1.357,   7.727e-5
1.359,   7.820e-5
1.361,   7.923e-5
1.363,   8.042e-5
1.365,   8.161e-5
1.367,   8.294e-5
1.369,   8.440e-5
1.371,   8.593e-5
1.373,   8.774e-5
1.375,   8.982e-5
1.377,   9.191e-5
1.379,   9.426e-5
1.381,   9.705e-5
1.383,   1.001e-4
1.385,   1.035e-4
1.387,   1.074e-4
1.389,   1.121e-4
1.391,   1.170e-4
1.393,   1.226e-4
1.395,   1.290e-4
1.397,   1.361e-4
1.399,   1.443e-4
1.401,   1.533e-4
1.403,   1.635e-4
1.405,   1.749e-4
1.407,   1.875e-4
1.409,   2.015e-4
1.411,   2.172e-4
1.413,   2.347e-4
1.415,   2.542e-4
1.417,   2.757e-4
1.419,   2.993e-4
1.421,   3.255e-4
1.423,   3.540e-4
1.425,   3.854e-4
1.427,   4.201e-4
1.429,   4.576e-4
1.431,   4.987e-4
1.433,   5.430e-4
1.435,   5.911e-4
1.437,   6.429e-4
1.439,   6.989e-4
1.441,   7.587e-4
1.443,   8.231e-4
1.445,   8.914e-4
1.447,   9.639e-4
1.449,   1.041e-3
1.451,   1.122e-3
1.453,   1.210e-3
1.455,   1.300e-3
1.457,   1.395e-3
1.459,   1.494e-3
1.461,   1.597e-3
1.463,   1.703e-3
1.465,   1.814e-3
1.467,   1.929e-3
1.469,   2.048e-3
1.471,   2.174e-3
1.473,   2.297e-3
1.475,   2.426e-3
1.477,   2.559e-3
1.479,   2.695e-3
1.481,   2.832e-3
1.483,   2.971e-3
1.485,   3.110e-3
1.487,   3.252e-3
1.489,   3.395e-3
1.491,   3.540e-3
1.493,   3.683e-3
1.495,   3.829e-3
1.497,   3.976e-3
1.499,   4.119e-3
1.501,   4.260e-3
1.503,   4.403e-3
1.505,   4.549e-3
1.507,   4.693e-3
1.509,   4.831e-3
1.511,   4.968e-3
1.513,   5.105e-3