Folder: DASH/Experimental Records and Raw Data/batch3/final400 (part 3)

File: B3_VARIANCE_400_#5_Full(#13)-212mV.txt
Feb. 20, 2023   15:36:19
Linear Sweep Voltammetry
File: d:\current work\al_oer\electrochemical test data\batch 3\400\B3_VARIANCE_400_#5_Full(#13)-212mV.txt
Data Source:  Experiment
Instrument Model:  CHI660E
Header:
Note:

Init E (V) = 1.099

Final E (V) = 1.470

Scan Rate (V/s) = 0.010
Sample Interval (V) = 0.001
Quiet Time (sec) = 2
Sensitivity (A/V) = 0.001
Comp R (ohm) = 5.6

Results:

Channel 1:

Potential/V, Current/A
1.099,   1.624e-4
1.101,   1.822e-4
1.103,   1.708e-4
1.105,   1.620e-4
1.107,   1.557e-4
1.109,   1.505e-4
1.111,   1.462e-4
1.113,   1.427e-4
1.115,   1.398e-4
1.117,   1.381e-4
1.119,   1.365e-4
1.121,   1.348e-4
1.123,   1.337e-4
1.125,   1.333e-4
1.127,   1.325e-4
1.129,   1.319e-4
1.131,   1.313e-4
1.133,   1.318e-4
1.135,   1.321e-4
1.137,   1.326e-4
1.139,   1.322e-4
1.141,   1.335e-4
1.143,   1.343e-4
1.145,   1.350e-4
1.147,   1.351e-4
1.149,   1.354e-4
1.151,   1.371e-4
1.153,   1.386e-4
1.155,   1.367e-4
1.157,   1.420e-4
1.159,   1.445e-4
1.161,   1.402e-4
1.163,   1.413e-4
1.165,   1.433e-4
1.167,   1.442e-4
1.169,   1.479e-4
1.171,   1.562e-4
1.173,   1.508e-4
1.175,   1.560e-4
1.177,   1.558e-4
1.179,   1.634e-4
1.181,   1.574e-4
1.183,   1.646e-4
1.185,   1.608e-4
1.187,   1.670e-4
1.189,   1.726e-4
1.191,   1.716e-4
1.193,   1.666e-4
1.195,   1.660e-4
1.197,   1.734e-4
1.199,   1.838e-4
1.201,   1.873e-4
1.203,   1.788e-4
1.205,   1.877e-4
1.207,   1.912e-4
1.209,   1.801e-4
1.211,   1.913e-4
1.213,   1.791e-4
1.215,   1.865e-4
1.217,   1.787e-4
1.219,   1.889e-4
1.221,   1.893e-4
1.223,   1.975e-4
1.225,   1.809e-4
1.227,   1.923e-4
1.229,   1.788e-4
1.231,   2.025e-4
1.233,   1.804e-4
1.235,   1.895e-4
1.237,   1.813e-4
1.239,   1.895e-4
1.241,   1.911e-4
1.243,   1.727e-4
1.245,   1.881e-4
1.247,   1.741e-4
1.249,   1.941e-4
1.251,   1.705e-4
1.253,   1.826e-4
1.255,   1.649e-4
1.257,   1.864e-4
1.259,   1.729e-4
1.261,   1.843e-4
1.263,   1.605e-4
1.265,   1.736e-4
1.267,   1.567e-4
1.269,   1.680e-4
1.271,   1.663e-4
1.273,   1.657e-4
1.275,   1.762e-4
1.277,   1.626e-4
1.279,   1.680e-4
1.281,   1.677e-4
1.283,   1.545e-4
1.285,   1.625e-4
1.287,   1.631e-4
1.289,   1.541e-4
1.291,   1.566e-4
1.293,   1.622e-4
1.295,   1.539e-4
1.297,   1.523e-4
1.299,   1.555e-4
1.301,   1.544e-4
1.303,   1.443e-4
1.305,   1.391e-4
1.307,   1.373e-4
1.309,   1.404e-4
1.311,   1.436e-4
1.313,   1.419e-4
1.315,   1.447e-4
1.317,   1.482e-4
1.319,   1.465e-4
1.321,   1.400e-4
1.323,   1.319e-4
1.325,   1.344e-4
1.327,   1.385e-4
1.329,   1.440e-4
1.331,   1.481e-4
1.333,   1.449e-4
1.335,   1.340e-4
1.337,   1.302e-4
1.339,   1.343e-4
1.341,   1.429e-4
1.343,   1.465e-4
1.345,   1.408e-4
1.347,   1.437e-4
1.349,   1.507e-4
1.351,   1.524e-4
1.353,   1.439e-4
1.355,   1.462e-4
1.357,   1.546e-4
1.359,   1.437e-4
1.361,   1.508e-4
1.363,   1.610e-4
1.365,   1.499e-4
1.367,   1.637e-4
1.369,   1.436e-4
1.371,   1.610e-4
1.373,   1.483e-4
1.375,   1.773e-4
1.377,   1.604e-4
1.379,   1.569e-4
1.381,   1.888e-4
1.383,   1.806e-4
1.385,   1.767e-4
1.387,   1.740e-4
1.389,   1.881e-4
1.391,   1.935e-4
1.393,   2.042e-4
1.395,   2.120e-4
1.397,   2.287e-4
1.399,   2.620e-4
1.401,   2.813e-4
1.403,   2.746e-4
1.405,   3.186e-4
1.407,   3.226e-4
1.409,   3.688e-4
1.411,   3.928e-4
1.413,   4.189e-4
1.415,   4.600e-4
1.417,   5.120e-4
1.419,   5.612e-4
1.421,   6.209e-4
1.423,   6.745e-4
1.425,   7.408e-4
1.427,   8.424e-4
1.429,   8.968e-4
1.431,   1.033e-3
1.433,   1.168e-3
1.435,   1.268e-3
1.437,   1.401e-3
1.439,   1.559e-3
1.441,   1.786e-3
1.443,   2.034e-3
1.445,   2.222e-3
1.447,   2.531e-3
1.449,   2.816e-3
1.451,   3.227e-3
1.453,   3.693e-3
1.455,   4.175e-3
1.457,   4.757e-3
1.459,   5.453e-3
1.461,   6.202e-3
1.463,   7.077e-3
1.465,   8.003e-3
1.467,   9.040e-3
1.469,   1.004e-2
1.470,   1.006e-2

File: B3_VARIANCE_400_#5_High_Quality(#26)-211mV.txt
Feb. 21, 2023   17:00:20
Linear Sweep Voltammetry
File: d:\current work\al_oer\electrochemical test data\batch 3\400\B3_VARIANCE_400_#5_High_Quality(#26)-211mV.txt
Data Source:  Experiment
Instrument Model:  CHI660E
Header:
Note:

Init E (V) = 1.128

Final E (V) = 1.495

Scan Rate (V/s) = 0.010
Sample Interval (V) = 0.001
Quiet Time (sec) = 2
Sensitivity (A/V) = 0.001
Comp R (ohm) = 5.9

Results:

Channel 1:

Potential/V, Current/A
1.128,   2.819e-3
1.130,   2.022e-3
1.132,   1.572e-3
1.134,   1.288e-3
1.136,   1.093e-3
1.138,   9.532e-4
1.140,   8.491e-4
1.142,   7.688e-4
1.144,   7.053e-4
1.146,   6.530e-4
1.148,   6.107e-4
1.150,   5.738e-4
1.152,   5.432e-4
1.154,   5.174e-4
1.156,   4.940e-4
1.158,   4.737e-4
1.160,   4.559e-4
1.162,   4.414e-4
1.164,   4.272e-4
1.166,   4.148e-4
1.168,   4.036e-4
1.170,   3.932e-4
1.172,   3.845e-4
1.174,   3.758e-4
1.176,   3.693e-4
1.178,   3.623e-4
1.180,   3.563e-4
1.182,   3.512e-4
1.184,   3.461e-4
1.186,   3.417e-4
1.188,   3.379e-4
1.190,   3.340e-4
1.192,   3.305e-4
1.194,   3.279e-4
1.196,   3.245e-4
1.198,   3.217e-4
1.200,   3.193e-4
1.202,   3.173e-4
1.204,   3.152e-4
1.206,   3.129e-4
1.208,   3.110e-4
1.210,   3.099e-4
1.212,   3.088e-4
1.214,   3.072e-4
1.216,   3.060e-4
1.218,   3.049e-4
1.220,   3.047e-4
1.222,   3.034e-4
1.224,   3.027e-4
1.226,   3.026e-4
1.228,   3.018e-4
1.230,   3.009e-4
1.232,   3.005e-4
1.234,   3.003e-4
1.236,   3.000e-4
1.238,   3.000e-4
1.240,   2.994e-4
1.242,   2.993e-4
1.244,   2.994e-4
1.246,   2.986e-4
1.248,   2.985e-4
1.250,   2.988e-4
1.252,   2.993e-4
1.254,   2.992e-4
1.256,   2.991e-4
1.258,   2.994e-4
1.260,   2.994e-4
1.262,   2.993e-4
1.264,   2.999e-4
1.266,   3.000e-4
1.268,   3.003e-4
1.270,   3.005e-4
1.272,   3.002e-4
1.274,   3.009e-4
1.276,   3.011e-4
1.278,   3.012e-4
1.280,   3.010e-4
1.282,   3.015e-4
1.284,   3.019e-4
1.286,   3.020e-4
1.288,   3.021e-4
1.290,   3.029e-4
1.292,   3.032e-4
1.294,   3.031e-4
1.296,   3.036e-4
1.298,   3.043e-4
1.300,   3.047e-4
1.302,   3.052e-4
1.304,   3.051e-4
1.306,   3.060e-4
1.308,   3.065e-4
1.310,   3.066e-4
1.312,   3.074e-4
1.314,   3.080e-4
1.316,   3.093e-4
1.318,   3.092e-4
1.320,   3.097e-4
1.322,   3.114e-4
1.324,   3.119e-4
1.326,   3.125e-4
1.328,   3.138e-4
1.330,   3.150e-4
1.332,   3.162e-4
1.334,   3.175e-4
1.336,   3.180e-4
1.338,   3.198e-4
1.340,   3.207e-4
1.342,   3.217e-4
1.344,   3.232e-4
1.346,   3.249e-4
1.348,   3.268e-4
1.350,   3.283e-4
1.352,   3.297e-4
1.354,   3.330e-4
1.356,   3.343e-4
1.358,   3.363e-4
1.360,   3.383e-4
1.362,   3.410e-4
1.364,   3.437e-4
1.366,   3.471e-4
1.368,   3.495e-4
1.370,   3.530e-4
1.372,   3.569e-4
1.374,   3.600e-4
1.376,   3.644e-4
1.378,   3.693e-4
1.380,   3.744e-4
1.382,   3.797e-4
1.384,   3.854e-4
1.386,   3.926e-4
1.388,   3.999e-4
1.390,   4.080e-4
1.392,   4.175e-4
1.394,   4.274e-4
1.396,   4.390e-4
1.398,   4.514e-4
1.400,   4.655e-4
1.402,   4.820e-4
1.404,   5.009e-4
1.406,   5.214e-4
1.408,   5.453e-4
1.410,   5.723e-4
1.412,   6.033e-4
1.414,   6.380e-4
1.416,   6.770e-4
1.418,   7.234e-4
1.420,   7.745e-4
1.422,   8.329e-4
1.424,   8.993e-4
1.426,   9.732e-4
1.428,   1.058e-3
1.430,   1.151e-3
1.432,   1.255e-3
1.434,   1.372e-3
1.436,   1.502e-3
1.438,   1.646e-3
1.440,   1.806e-3
1.442,   1.982e-3
1.444,   2.175e-3
1.446,   2.382e-3
1.448,   2.614e-3
1.450,   2.872e-3
1.452,   3.137e-3
1.454,   3.423e-3
1.456,   3.729e-3
1.458,   4.053e-3
1.460,   4.398e-3
1.462,   4.771e-3
1.464,   5.153e-3
1.466,   5.563e-3
1.468,   6.117e-3
1.470,   6.554e-3
1.472,   7.041e-3
1.474,   7.565e-3
1.476,   8.852e-3
1.478,   9.352e-3
1.480,   9.845e-3
1.482,   1.006e-2
1.484,   1.006e-2
1.486,   1.006e-2
1.488,   1.006e-2
1.490,   1.006e-2
1.492,   1.006e-2
1.494,   1.006e-2
1.495,   1.006e-2