Folder: DASH/Experimental Records and Raw Data/batch3/final500 (part 2)

File: B3_BEST_500_#6_High_Quality(#19)-186mV.txt
Feb. 24, 2023   13:42:29
Linear Sweep Voltammetry
File: d:\current work\al_oer\electrochemical test data\batch 3\500\B3_BEST_500_#6_High_Quality(#19)-186mV.txt
Data Source:  Experiment
Instrument Model:  CHI660E
Header:
Note:

Init E (V) = 1.099

Final E (V) = 1.459

Scan Rate (V/s) = 0.010
Sample Interval (V) = 0.001
Quiet Time (sec) = 2
Sensitivity (A/V) = 0.001
Comp R (ohm) = 4.8

Results:

Channel 1:

Potential/V, Current/A
1.099,   1.034e-4
1.101,   1.229e-4
1.103,   1.140e-4
1.105,   1.073e-4
1.107,   1.022e-4
1.109,   9.861e-5
1.111,   9.557e-5
1.113,   9.307e-5
1.115,   9.102e-5
1.117,   8.981e-5
1.119,   8.862e-5
1.121,   8.732e-5
1.123,   8.633e-5
1.125,   8.593e-5
1.127,   8.540e-5
1.129,   8.463e-5
1.131,   8.423e-5
1.133,   8.425e-5
1.135,   8.384e-5
1.137,   8.343e-5
1.139,   8.327e-5
1.141,   8.344e-5
1.143,   8.341e-5
1.145,   8.317e-5
1.147,   8.296e-5
1.149,   8.325e-5
1.151,   8.341e-5
1.153,   8.310e-5
1.155,   8.299e-5
1.157,   8.339e-5
1.159,   8.339e-5
1.161,   8.321e-5
1.163,   8.327e-5
1.165,   8.383e-5
1.167,   8.377e-5
1.169,   8.367e-5
1.171,   8.386e-5
1.173,   8.413e-5
1.175,   8.416e-5
1.177,   8.402e-5
1.179,   8.414e-5
1.181,   8.440e-5
1.183,   8.466e-5
1.185,   8.442e-5
1.187,   8.434e-5
1.189,   8.476e-5
1.191,   8.493e-5
1.193,   8.485e-5
1.195,   8.481e-5
1.197,   8.527e-5
1.199,   8.534e-5
1.201,   8.508e-5
1.203,   8.525e-5
1.205,   8.551e-5
1.207,   8.564e-5
1.209,   8.558e-5
1.211,   8.554e-5
1.213,   8.582e-5
1.215,   8.605e-5
1.217,   8.568e-5
1.219,   8.587e-5
1.221,   8.621e-5
1.223,   8.633e-5
1.225,   8.607e-5
1.227,   8.610e-5
1.229,   8.659e-5
1.231,   8.654e-5
1.233,   8.648e-5
1.235,   8.657e-5
1.237,   8.675e-5
1.239,   8.685e-5
1.241,   8.683e-5
1.243,   8.666e-5
1.245,   8.711e-5
1.247,   8.730e-5
1.249,   8.707e-5
1.251,   8.715e-5
1.253,   8.760e-5
1.255,   8.763e-5
1.257,   8.752e-5
1.259,   8.756e-5
1.261,   8.809e-5
1.263,   8.830e-5
1.265,   8.821e-5
1.267,   8.842e-5
1.269,   8.867e-5
1.271,   8.898e-5
1.273,   8.907e-5
1.275,   8.897e-5
1.277,   8.942e-5
1.279,   8.970e-5
1.281,   8.982e-5
1.283,   8.983e-5
1.285,   9.052e-5
1.287,   9.086e-5
1.289,   9.076e-5
1.291,   9.096e-5
1.293,   9.181e-5
1.295,   9.201e-5
1.297,   9.224e-5
1.299,   9.271e-5
1.301,   9.334e-5
1.303,   9.381e-5
1.305,   9.404e-5
1.307,   9.427e-5
1.309,   9.538e-5
1.311,   9.590e-5
1.313,   9.624e-5
1.315,   9.671e-5
1.317,   9.786e-5
1.319,   9.853e-5
1.321,   9.927e-5
1.323,   9.997e-5
1.325,   1.014e-4
1.327,   1.024e-4
1.329,   1.031e-4
1.331,   1.044e-4
1.333,   1.061e-4
1.335,   1.074e-4
1.337,   1.089e-4
1.339,   1.105e-4
1.341,   1.126e-4
1.343,   1.146e-4
1.345,   1.165e-4
1.347,   1.190e-4
1.349,   1.220e-4
1.351,   1.249e-4
1.353,   1.279e-4
1.355,   1.315e-4
1.357,   1.358e-4
1.359,   1.401e-4
1.361,   1.446e-4
1.363,   1.502e-4
1.365,   1.568e-4
1.367,   1.637e-4
1.369,   1.714e-4
1.371,   1.802e-4
1.373,   1.908e-4
1.375,   2.024e-4
1.377,   2.157e-4
1.379,   2.311e-4
1.381,   2.495e-4
1.383,   2.702e-4
1.385,   2.940e-4
1.387,   3.218e-4
1.389,   3.545e-4
1.391,   3.920e-4
1.393,   4.348e-4
1.395,   4.851e-4
1.397,   5.432e-4
1.399,   6.103e-4
1.401,   6.875e-4
1.403,   7.764e-4
1.405,   8.789e-4
1.407,   9.960e-4
1.409,   1.130e-3
1.411,   1.290e-3
1.413,   1.467e-3
1.415,   1.671e-3
1.417,   1.902e-3
1.419,   2.166e-3
1.421,   2.467e-3
1.423,   2.814e-3
1.425,   3.184e-3
1.427,   3.586e-3
1.429,   4.009e-3
1.431,   4.474e-3
1.433,   4.925e-3
1.435,   5.377e-3
1.437,   5.836e-3
1.439,   6.309e-3
1.441,   6.753e-3
1.443,   7.176e-3
1.445,   7.638e-3
1.447,   8.037e-3
1.449,   8.422e-3
1.451,   8.794e-3
1.453,   9.218e-3
1.455,   9.568e-3
1.457,   9.906e-3
1.459,   1.007e-2

File: B3_BEST_500_#7_Full-266mV.txt
Feb. 24, 2023   14:14:53
Linear Sweep Voltammetry
File: d:\current work\al_oer\electrochemical test data\batch 3\500\B3_BEST_500_#7_Full-266mV.txt
Data Source:  Experiment
Instrument Model:  CHI660E
Header:
Note:

Init E (V) = 1.102

Final E (V) = 1.665

Scan Rate (V/s) = 0.010
Sample Interval (V) = 0.001
Quiet Time (sec) = 2
Sensitivity (A/V) = 0.001
Comp R (ohm) = 4.6

Results:

Channel 1:

Potential/V, Current/A
1.102,   3.913e-4
1.104,   3.247e-4
1.106,   2.723e-4
1.108,   2.328e-4
1.110,   2.025e-4
1.112,   1.791e-4
1.114,   1.605e-4
1.116,   1.454e-4
1.118,   1.330e-4
1.120,   1.230e-4
1.122,   1.146e-4
1.124,   1.075e-4
1.126,   1.014e-4
1.128,   9.629e-5
1.130,   9.201e-5
1.132,   8.816e-5
1.134,   8.481e-5
1.136,   8.206e-5
1.138,   7.950e-5
1.140,   7.723e-5
1.142,   7.526e-5
1.144,   7.346e-5
1.146,   7.193e-5
1.148,   7.049e-5
1.150,   6.925e-5
1.152,   6.814e-5
1.154,   6.713e-5
1.156,   6.624e-5
1.158,   6.536e-5
1.160,   6.470e-5
1.162,   6.405e-5
1.164,   6.342e-5
1.166,   6.282e-5
1.168,   6.233e-5
1.170,   6.197e-5
1.172,   6.148e-5
1.174,   6.118e-5
1.176,   6.081e-5
1.178,   6.055e-5
1.180,   6.024e-5
1.182,   5.996e-5
1.184,   5.972e-5
1.186,   5.963e-5
1.188,   5.938e-5
1.190,   5.920e-5
1.192,   5.906e-5
1.194,   5.902e-5
1.196,   5.878e-5
1.198,   5.871e-5
1.200,   5.878e-5
1.202,   5.868e-5
1.204,   5.849e-5
1.206,   5.840e-5
1.208,   5.845e-5
1.210,   5.839e-5
1.212,   5.835e-5
1.214,   5.833e-5
1.216,   5.841e-5
1.218,   5.840e-5
1.220,   5.835e-5
1.222,   5.837e-5
1.224,   5.837e-5
1.226,   5.849e-5
1.228,   5.848e-5
1.230,   5.842e-5
1.232,   5.852e-5
1.234,   5.855e-5
1.236,   5.863e-5
1.238,   5.865e-5
1.240,   5.873e-5
1.242,   5.883e-5
1.244,   5.887e-5
1.246,   5.890e-5
1.248,   5.899e-5
1.250,   5.911e-5
1.252,   5.919e-5
1.254,   5.917e-5
1.256,   5.936e-5
1.258,   5.950e-5
1.260,   5.953e-5
1.262,   5.962e-5
1.264,   5.985e-5
1.266,   6.003e-5
1.268,   6.006e-5
1.270,   6.017e-5
1.272,   6.034e-5
1.274,   6.040e-5
1.276,   6.060e-5
1.278,   6.068e-5
1.280,   6.081e-5
1.282,   6.100e-5
1.284,   6.112e-5
1.286,   6.130e-5
1.288,   6.152e-5
1.290,   6.170e-5
1.292,   6.180e-5
1.294,   6.192e-5
1.296,   6.219e-5
1.298,   6.244e-5
1.300,   6.254e-5
1.302,   6.280e-5
1.304,   6.304e-5
1.306,   6.322e-5
1.308,   6.342e-5
1.310,   6.356e-5
1.312,   6.387e-5
1.314,   6.409e-5
1.316,   6.439e-5
1.318,   6.449e-5
1.320,   6.487e-5
1.322,   6.504e-5
1.324,   6.523e-5
1.326,   6.548e-5
1.328,   6.596e-5
1.330,   6.614e-5
1.332,   6.645e-5
1.334,   6.671e-5
1.336,   6.701e-5
1.338,   6.738e-5
1.340,   6.768e-5
1.342,   6.804e-5
1.344,   6.845e-5
1.346,   6.880e-5
1.348,   6.909e-5
1.350,   6.949e-5
1.352,   6.992e-5
1.354,   7.045e-5
1.356,   7.086e-5
1.358,   7.127e-5
1.360,   7.189e-5
1.362,   7.246e-5
1.364,   7.292e-5
1.366,   7.362e-5
1.368,   7.432e-5
1.370,   7.502e-5
1.372,   7.580e-5
1.374,   7.655e-5
1.376,   7.751e-5
1.378,   7.862e-5
1.380,   7.973e-5
1.382,   8.091e-5
1.384,   8.232e-5
1.386,   8.390e-5
1.388,   8.557e-5
1.390,   8.736e-5
1.392,   8.967e-5
1.394,   9.214e-5
1.396,   9.475e-5
1.398,   9.786e-5
1.400,   1.014e-4
1.402,   1.053e-4
1.404,   1.097e-4
1.406,   1.147e-4
1.408,   1.203e-4
1.410,   1.266e-4
1.412,   1.334e-4
1.414,   1.412e-4
1.416,   1.499e-4
1.418,   1.596e-4
1.420,   1.701e-4
1.422,   1.818e-4
1.424,   1.947e-4
1.426,   2.088e-4
1.428,   2.240e-4
1.430,   2.412e-4
1.432,   2.593e-4
1.434,   2.790e-4
1.436,   3.002e-4
1.438,   3.230e-4
1.440,   3.476e-4
1.442,   3.739e-4
1.444,   4.018e-4
1.446,   4.317e-4
1.448,   4.634e-4
1.450,   4.971e-4
1.452,   5.325e-4
1.454,   5.702e-4
1.456,   6.101e-4
1.458,   6.521e-4
1.460,   6.961e-4
1.462,   7.425e-4
1.464,   7.911e-4
1.466,   8.421e-4
1.468,   8.956e-4
1.470,   9.514e-4
1.472,   1.010e-3
1.474,   1.071e-3
1.476,   1.135e-3
1.478,   1.201e-3
1.480,   1.270e-3
1.482,   1.341e-3
1.484,   1.416e-3
1.486,   1.492e-3
1.488,   1.572e-3
1.490,   1.654e-3
1.492,   1.738e-3
1.494,   1.826e-3
1.496,   1.915e-3
1.498,   2.007e-3
1.500,   2.102e-3
1.502,   2.198e-3
1.504,   2.296e-3
1.506,   2.393e-3
1.508,   2.496e-3
1.510,   2.598e-3
1.512,   2.704e-3
1.514,   2.813e-3
1.516,   2.921e-3
1.518,   3.034e-3
1.520,   3.150e-3
1.522,   3.267e-3
1.524,   3.384e-3
1.526,   3.506e-3
1.528,   3.629e-3
1.530,   3.753e-3
1.532,   3.876e-3
1.534,   4.001e-3
1.536,   4.128e-3
1.538,   4.253e-3
1.540,   4.384e-3
1.542,   4.513e-3
1.544,   4.646e-3
1.546,   4.776e-3
1.548,   4.912e-3
1.550,   5.048e-3
1.552,   5.192e-3
1.554,   5.332e-3
1.556,   5.463e-3
1.558,   5.600e-3
1.560,   5.745e-3
1.562,   5.886e-3
1.564,   6.025e-3
1.566,   6.163e-3
1.568,   6.304e-3
1.570,   6.445e-3
1.572,   6.579e-3
1.574,   6.714e-3
1.576,   6.845e-3
1.578,   6.982e-3
1.580,   7.118e-3
1.582,   7.250e-3
1.584,   7.382e-3
1.586,   7.502e-3
1.588,   7.640e-3
1.590,   7.771e-3
1.592,   7.902e-3
1.594,   8.014e-3
1.596,   8.125e-3
1.598,   8.247e-3
1.600,   8.346e-3
1.602,   8.460e-3
1.604,   8.575e-3
1.606,   8.672e-3
1.608,   8.776e-3
1.610,   8.877e-3
1.612,   8.974e-3
1.614,   9.059e-3
1.616,   9.132e-3
1.618,   9.215e-3
1.620,   9.291e-3
1.622,   9.340e-3
1.624,   9.394e-3
1.626,   9.442e-3
1.628,   9.497e-3
1.630,   9.545e-3
1.632,   9.589e-3
1.634,   9.630e-3
1.636,   9.657e-3
1.638,   9.676e-3
1.640,   9.696e-3
1.642,   9.730e-3
1.644,   9.738e-3
1.646,   9.749e-3
1.648,   9.758e-3
1.650,   9.751e-3
1.652,   9.730e-3
1.654,   9.698e-3
1.656,   9.671e-3
1.658,   9.640e-3
1.660,   9.602e-3
1.662,   9.550e-3
1.664,   9.513e-3
1.665,   9.482e-3

File: B3_BEST_500_#8_High_Quality(#21)-216mV.txt
Feb. 24, 2023   13:27:47
Linear Sweep Voltammetry
File: d:\current work\al_oer\electrochemical test data\batch 3\500\B3_BEST_500_#8_High_Quality(#21)-216mV.txt
Data Source:  Experiment
Instrument Model:  CHI660E
Header:
Note:

Init E (V) = 1.098

Final E (V) = 1.502

Scan Rate (V/s) = 0.010
Sample Interval (V) = 0.001
Quiet Time (sec) = 2
Sensitivity (A/V) = 0.001
Comp R (ohm) = 4.6

Results:

Channel 1:

Potential/V, Current/A
1.098,   1.094e-4
1.100,   1.186e-4
1.102,   1.082e-4
1.104,   1.002e-4
1.106,   9.420e-5
1.108,   8.960e-5
1.110,   8.565e-5
1.112,   8.239e-5
1.114,   7.971e-5
1.116,   7.790e-5
1.118,   7.612e-5
1.120,   7.427e-5
1.122,   7.297e-5
1.124,   7.215e-5
1.126,   7.094e-5
1.128,   7.005e-5
1.130,   6.927e-5
1.132,   6.893e-5
1.134,   6.840e-5
1.136,   6.772e-5
1.138,   6.740e-5
1.140,   6.721e-5
1.142,   6.697e-5
1.144,   6.656e-5
1.146,   6.624e-5
1.148,   6.642e-5
1.150,   6.619e-5
1.152,   6.594e-5
1.154,   6.583e-5
1.156,   6.590e-5
1.158,   6.590e-5
1.160,   6.564e-5
1.162,   6.568e-5
1.164,   6.604e-5
1.166,   6.586e-5
1.168,   6.576e-5
1.170,   6.606e-5
1.172,   6.615e-5
1.174,   6.603e-5
1.176,   6.620e-5
1.178,   6.620e-5
1.180,   6.683e-5
1.182,   6.675e-5
1.184,   6.651e-5
1.186,   6.669e-5
1.188,   6.709e-5
1.190,   6.723e-5
1.192,   6.711e-5
1.194,   6.718e-5
1.196,   6.771e-5
1.198,   6.783e-5
1.200,   6.773e-5
1.202,   6.782e-5
1.204,   6.833e-5
1.206,   6.839e-5
1.208,   6.837e-5
1.210,   6.830e-5
1.212,   6.881e-5
1.214,   6.894e-5
1.216,   6.871e-5
1.218,   6.869e-5
1.220,   6.925e-5
1.222,   6.913e-5
1.224,   6.918e-5
1.226,   6.916e-5
1.228,   6.965e-5
1.230,   6.957e-5
1.232,   6.929e-5
1.234,   6.962e-5
1.236,   6.979e-5
1.238,   6.977e-5
1.240,   6.972e-5
1.242,   6.959e-5
1.244,   7.003e-5
1.246,   7.007e-5
1.248,   6.979e-5
1.250,   6.972e-5
1.252,   7.007e-5
1.254,   7.010e-5
1.256,   6.984e-5
1.258,   6.980e-5
1.260,   7.029e-5
1.262,   7.021e-5
1.264,   7.006e-5
1.266,   7.006e-5
1.268,   7.028e-5
1.270,   7.014e-5
1.272,   7.023e-5
1.274,   7.006e-5
1.276,   7.038e-5
1.278,   7.034e-5
1.280,   7.004e-5
1.282,   7.005e-5
1.284,   7.046e-5
1.286,   7.044e-5
1.288,   7.025e-5
1.290,   7.023e-5
1.292,   7.072e-5
1.294,   7.068e-5
1.296,   7.050e-5
1.298,   7.064e-5
1.300,   7.096e-5
1.302,   7.096e-5
1.304,   7.089e-5
1.306,   7.089e-5
1.308,   7.141e-5
1.310,   7.165e-5
1.312,   7.140e-5
1.314,   7.166e-5
1.316,   7.205e-5
1.318,   7.209e-5
1.320,   7.220e-5
1.322,   7.240e-5
1.324,   7.298e-5
1.326,   7.306e-5
1.328,   7.316e-5
1.330,   7.348e-5
1.332,   7.394e-5
1.334,   7.432e-5
1.336,   7.434e-5
1.338,   7.469e-5
1.340,   7.542e-5
1.342,   7.589e-5
1.344,   7.609e-5
1.346,   7.644e-5
1.348,   7.746e-5
1.350,   7.796e-5
1.352,   7.833e-5
1.354,   7.900e-5
1.356,   8.027e-5
1.358,   8.109e-5
1.360,   8.172e-5
1.362,   8.283e-5
1.364,   8.445e-5
1.366,   8.562e-5
1.368,   8.703e-5
1.370,   8.859e-5
1.372,   9.108e-5
1.374,   9.341e-5
1.376,   9.563e-5
1.378,   9.844e-5
1.380,   1.023e-4
1.382,   1.061e-4
1.384,   1.103e-4
1.386,   1.153e-4
1.388,   1.217e-4
1.390,   1.283e-4
1.392,   1.355e-4
1.394,   1.445e-4
1.396,   1.547e-4
1.398,   1.662e-4
1.400,   1.794e-4
1.402,   1.939e-4
1.404,   2.115e-4
1.406,   2.310e-4
1.408,   2.530e-4
1.410,   2.782e-4
1.412,   3.071e-4
1.414,   3.398e-4
1.416,   3.760e-4
1.418,   4.176e-4
1.420,   4.651e-4
1.422,   5.175e-4
1.424,   5.776e-4
1.426,   6.446e-4
1.428,   7.193e-4
1.430,   8.026e-4
1.432,   8.963e-4
1.434,   9.987e-4
1.436,   1.113e-3
1.438,   1.239e-3
1.440,   1.377e-3
1.442,   1.530e-3
1.444,   1.695e-3
1.446,   1.873e-3
1.448,   2.065e-3
1.450,   2.271e-3
1.452,   2.497e-3
1.454,   2.730e-3
1.456,   2.982e-3
1.458,   3.256e-3
1.460,   3.542e-3
1.462,   3.874e-3
1.464,   4.186e-3
1.466,   4.486e-3
1.468,   4.811e-3
1.470,   5.130e-3
1.472,   5.488e-3
1.474,   5.900e-3
1.476,   6.404e-3
1.478,   6.722e-3
1.480,   7.133e-3
1.482,   7.581e-3
1.484,   7.925e-3
1.486,   8.895e-3
1.488,   9.342e-3
1.490,   9.791e-3
1.492,   1.007e-2
1.494,   1.007e-2
1.496,   1.007e-2
1.498,   1.007e-2
1.500,   1.007e-2
1.502,   1.007e-2

File: B3_VARIANCE_500_#2_High_Quality(#23)-229mV.txt
Feb. 22, 2023   13:02:30
Linear Sweep Voltammetry
File: d:\current work\al_oer\electrochemical test data\batch 3\500\B3_VARIANCE_500_#2_High_Quality(#23)-229mV.txt
Data Source:  Experiment
Instrument Model:  CHI660E
Header:
Note:

Init E (V) = 1.100

Final E (V) = 1.500

Scan Rate (V/s) = 0.010
Sample Interval (V) = 0.001
Quiet Time (sec) = 2
Sensitivity (A/V) = 0.001
Comp R (ohm) = 5.4

Results:

Channel 1:

Potential/V, Current/A
1.100,   1.632e-4
1.102,   1.570e-4
1.104,   1.415e-4
1.106,   1.291e-4
1.108,   1.196e-4
1.110,   1.117e-4
1.112,   1.053e-4
1.114,   9.982e-5
1.116,   9.535e-5
1.118,   9.164e-5
1.120,   8.835e-5
1.122,   8.530e-5
1.124,   8.267e-5
1.126,   8.068e-5
1.128,   7.864e-5
1.130,   7.683e-5
1.132,   7.516e-5
1.134,   7.414e-5
1.136,   7.275e-5
1.138,   7.153e-5
1.140,   7.063e-5
1.142,   6.988e-5
1.144,   6.903e-5
1.146,   6.841e-5
1.148,   6.761e-5
1.150,   6.734e-5
1.152,   6.677e-5
1.154,   6.623e-5
1.156,   6.586e-5
1.158,   6.582e-5
1.160,   6.537e-5
1.162,   6.508e-5
1.164,   6.481e-5
1.166,   6.486e-5
1.168,   6.471e-5
1.170,   6.435e-5
1.172,   6.457e-5
1.174,   6.446e-5
1.176,   6.447e-5
1.178,   6.430e-5
1.180,   6.421e-5
1.182,   6.450e-5
1.184,   6.462e-5
1.186,   6.433e-5
1.188,   6.452e-5
1.190,   6.460e-5
1.192,   6.480e-5
1.194,   6.462e-5
1.196,   6.465e-5
1.198,   6.500e-5
1.200,   6.516e-5
1.202,   6.494e-5
1.204,   6.524e-5
1.206,   6.527e-5
1.208,   6.541e-5
1.210,   6.532e-5
1.212,   6.548e-5
1.214,   6.566e-5
1.216,   6.573e-5
1.218,   6.557e-5
1.220,   6.575e-5
1.222,   6.586e-5
1.224,   6.604e-5
1.226,   6.584e-5
1.228,   6.596e-5
1.230,   6.619e-5
1.232,   6.620e-5
1.234,   6.603e-5
1.236,   6.635e-5
1.238,   6.624e-5
1.240,   6.628e-5
1.242,   6.640e-5
1.244,   6.617e-5
1.246,   6.650e-5
1.248,   6.638e-5
1.250,   6.630e-5
1.252,   6.634e-5
1.254,   6.644e-5
1.256,   6.653e-5
1.258,   6.626e-5
1.260,   6.640e-5
1.262,   6.672e-5
1.264,   6.641e-5
1.266,   6.648e-5
1.268,   6.646e-5
1.270,   6.674e-5
1.272,   6.667e-5
1.274,   6.671e-5
1.276,   6.661e-5
1.278,   6.681e-5
1.280,   6.678e-5
1.282,   6.679e-5
1.284,   6.674e-5
1.286,   6.707e-5
1.288,   6.708e-5
1.290,   6.704e-5
1.292,   6.704e-5
1.294,   6.756e-5
1.296,   6.738e-5
1.298,   6.740e-5
1.300,   6.757e-5
1.302,   6.783e-5
1.304,   6.781e-5
1.306,   6.800e-5
1.308,   6.798e-5
1.310,   6.840e-5
1.312,   6.848e-5
1.314,   6.863e-5
1.316,   6.872e-5
1.318,   6.917e-5
1.320,   6.932e-5
1.322,   6.950e-5
1.324,   6.953e-5
1.326,   7.041e-5
1.328,   7.030e-5
1.330,   7.031e-5
1.332,   7.081e-5
1.334,   7.123e-5
1.336,   7.150e-5
1.338,   7.189e-5
1.340,   7.201e-5
1.342,   7.271e-5
1.344,   7.314e-5
1.346,   7.329e-5
1.348,   7.378e-5
1.350,   7.452e-5
1.352,   7.500e-5
1.354,   7.538e-5
1.356,   7.595e-5
1.358,   7.692e-5
1.360,   7.752e-5
1.362,   7.795e-5
1.364,   7.917e-5
1.366,   7.959e-5
1.368,   8.082e-5
1.370,   8.146e-5
1.372,   8.239e-5
1.374,   8.393e-5
1.376,   8.505e-5
1.378,   8.643e-5
1.380,   8.769e-5
1.382,   8.970e-5
1.384,   9.160e-5
1.386,   9.358e-5
1.388,   9.582e-5
1.390,   9.886e-5
1.392,   1.019e-4
1.394,   1.049e-4
1.396,   1.091e-4
1.398,   1.134e-4
1.400,   1.184e-4
1.402,   1.241e-4
1.404,   1.302e-4
1.406,   1.381e-4
1.408,   1.461e-4
1.410,   1.558e-4
1.412,   1.665e-4
1.414,   1.796e-4
1.416,   1.932e-4
1.418,   2.096e-4
1.420,   2.276e-4
1.422,   2.488e-4
1.424,   2.733e-4
1.426,   2.993e-4
1.428,   3.314e-4
1.430,   3.660e-4
1.432,   4.067e-4
1.434,   4.511e-4
1.436,   5.031e-4
1.438,   5.609e-4
1.440,   6.289e-4
1.442,   7.016e-4
1.444,   7.875e-4
1.446,   8.835e-4
1.448,   9.920e-4
1.450,   1.112e-3
1.452,   1.251e-3
1.454,   1.404e-3
1.456,   1.579e-3
1.458,   1.770e-3
1.460,   1.989e-3
1.462,   2.228e-3
1.464,   2.503e-3
1.466,   2.797e-3
1.468,   3.132e-3
1.470,   3.484e-3
1.472,   3.868e-3
1.474,   4.282e-3
1.476,   4.758e-3
1.478,   5.253e-3
1.480,   5.801e-3
1.482,   6.355e-3
1.484,   6.940e-3
1.486,   7.665e-3
1.488,   8.359e-3
1.490,   9.072e-3
1.492,   9.691e-3
1.494,   1.006e-2
1.496,   1.006e-2
1.498,   1.006e-2
1.500,   1.006e-2

File: B3_VARIANCE_500_#4_High_Quality(#25)-259mV.txt
Feb. 24, 2023   15:05:31
Linear Sweep Voltammetry
File: d:\current work\al_oer\electrochemical test data\batch 3\500\B3_VARIANCE_500_#4_High_Quality(#25)-259mV.txt
Data Source:  Experiment
Instrument Model:  CHI660E
Header:
Note:

Init E (V) = 1.099

Final E (V) = 1.576

Scan Rate (V/s) = 0.010
Sample Interval (V) = 0.001
Quiet Time (sec) = 2
Sensitivity (A/V) = 0.001
Comp R (ohm) = 4.8

Results:

Channel 1:

Potential/V, Current/A
1.099,   3.697e-5
1.101,   3.559e-5
1.103,   3.198e-5
1.105,   2.922e-5
1.107,   2.706e-5
1.109,   2.527e-5
1.111,   2.380e-5
1.113,   2.260e-5
1.115,   2.162e-5
1.117,   2.076e-5
1.119,   2.006e-5
1.121,   1.945e-5
1.123,   1.888e-5
1.125,   1.848e-5
1.127,   1.810e-5
1.129,   1.766e-5
1.131,   1.739e-5
1.133,   1.717e-5
1.135,   1.694e-5
1.137,   1.670e-5
1.139,   1.656e-5
1.141,   1.629e-5
1.143,   1.625e-5
1.145,   1.613e-5
1.147,   1.593e-5
1.149,   1.589e-5
1.151,   1.576e-5
1.153,   1.570e-5
1.155,   1.569e-5
1.157,   1.566e-5
1.159,   1.563e-5
1.161,   1.557e-5
1.163,   1.555e-5
1.165,   1.553e-5
1.167,   1.556e-5
1.169,   1.548e-5
1.171,   1.555e-5
1.173,   1.562e-5
1.175,   1.556e-5
1.177,   1.557e-5
1.179,   1.562e-5
1.181,   1.563e-5
1.183,   1.572e-5
1.185,   1.570e-5
1.187,   1.570e-5
1.189,   1.581e-5
1.191,   1.581e-5
1.193,   1.583e-5
1.195,   1.591e-5
1.197,   1.602e-5
1.199,   1.605e-5
1.201,   1.606e-5
1.203,   1.607e-5
1.205,   1.623e-5
1.207,   1.626e-5
1.209,   1.633e-5
1.211,   1.634e-5
1.213,   1.640e-5
1.215,   1.641e-5
1.217,   1.644e-5
1.219,   1.647e-5
1.221,   1.656e-5
1.223,   1.670e-5
1.225,   1.671e-5
1.227,   1.666e-5
1.229,   1.677e-5
1.231,   1.677e-5
1.233,   1.678e-5
1.235,   1.683e-5
1.237,   1.692e-5
1.239,   1.700e-5
1.241,   1.702e-5
1.243,   1.701e-5
1.245,   1.714e-5
1.247,   1.713e-5
1.249,   1.715e-5
1.251,   1.726e-5
1.253,   1.724e-5
1.255,   1.728e-5
1.257,   1.726e-5
1.259,   1.735e-5
1.261,   1.746e-5
1.263,   1.747e-5
1.265,   1.748e-5
1.267,   1.755e-5
1.269,   1.768e-5
1.271,   1.771e-5
1.273,   1.773e-5
1.275,   1.775e-5
1.277,   1.787e-5
1.279,   1.790e-5
1.281,   1.794e-5
1.283,   1.797e-5
1.285,   1.810e-5
1.287,   1.819e-5
1.289,   1.822e-5
1.291,   1.823e-5
1.293,   1.843e-5
1.295,   1.849e-5
1.297,   1.851e-5
1.299,   1.863e-5
1.301,   1.872e-5
1.303,   1.881e-5
1.305,   1.889e-5
1.307,   1.898e-5
1.309,   1.915e-5
1.311,   1.920e-5
1.313,   1.934e-5
1.315,   1.938e-5
1.317,   1.954e-5
1.319,   1.969e-5
1.321,   1.973e-5
1.323,   1.984e-5
1.325,   2.008e-5
1.327,   2.016e-5
1.329,   2.034e-5
1.331,   2.044e-5
1.333,   2.064e-5
1.335,   2.081e-5
1.337,   2.095e-5
1.339,   2.106e-5
1.341,   2.128e-5
1.343,   2.147e-5
1.345,   2.158e-5
1.347,   2.177e-5
1.349,   2.199e-5
1.351,   2.223e-5
1.353,   2.244e-5
1.355,   2.263e-5
1.357,   2.289e-5
1.359,   2.310e-5
1.361,   2.335e-5
1.363,   2.369e-5
1.365,   2.400e-5
1.367,   2.433e-5
1.369,   2.468e-5
1.371,   2.503e-5
1.373,   2.551e-5
1.375,   2.608e-5
1.377,   2.647e-5
1.379,   2.704e-5
1.381,   2.778e-5
1.383,   2.855e-5
1.385,   2.928e-5
1.387,   3.021e-5
1.389,   3.133e-5
1.391,   3.250e-5
1.393,   3.372e-5
1.395,   3.530e-5
1.397,   3.703e-5
1.399,   3.883e-5
1.401,   4.110e-5
1.403,   4.354e-5
1.405,   4.635e-5
1.407,   4.946e-5
1.409,   5.292e-5
1.411,   5.689e-5
1.413,   6.145e-5
1.415,   6.659e-5
1.417,   7.219e-5
1.419,   7.853e-5
1.421,   8.578e-5
1.423,   9.371e-5
1.425,   1.025e-4
1.427,   1.126e-4
1.429,   1.236e-4
1.431,   1.359e-4
1.433,   1.494e-4
1.435,   1.646e-4
1.437,   1.813e-4
1.439,   1.998e-4
1.441,   2.201e-4
1.443,   2.427e-4
1.445,   2.678e-4
1.447,   2.951e-4
1.449,   3.250e-4
1.451,   3.580e-4
1.453,   3.944e-4
1.455,   4.342e-4
1.457,   4.772e-4
1.459,   5.240e-4
1.461,   5.752e-4
1.463,   6.306e-4
1.465,   6.915e-4
1.467,   7.567e-4
1.469,   8.277e-4
1.471,   9.034e-4
1.473,   9.849e-4
1.475,   1.072e-3
1.477,   1.166e-3
1.479,   1.268e-3
1.481,   1.375e-3
1.483,   1.489e-3
1.485,   1.609e-3
1.487,   1.736e-3
1.489,   1.869e-3
1.491,   2.011e-3
1.493,   2.156e-3
1.495,   2.309e-3
1.497,   2.464e-3
1.499,   2.625e-3
1.501,   2.800e-3
1.503,   2.974e-3
1.505,   3.152e-3
1.507,   3.329e-3
1.509,   3.518e-3
1.511,   3.713e-3
1.513,   3.899e-3
1.515,   4.085e-3
1.517,   4.274e-3
1.519,   4.479e-3
1.521,   4.673e-3
1.523,   4.884e-3
1.525,   5.087e-3
1.527,   5.326e-3
1.529,   5.536e-3
1.531,   5.745e-3
1.533,   5.947e-3
1.535,   6.163e-3
1.537,   6.350e-3
1.539,   6.556e-3
1.541,   6.770e-3
1.543,   6.979e-3
1.545,   7.192e-3
1.547,   7.455e-3
1.549,   7.637e-3
1.551,   7.837e-3
1.553,   8.068e-3
1.555,   8.300e-3
1.557,   8.546e-3
1.559,   8.736e-3
1.561,   8.910e-3
1.563,   9.184e-3
1.565,   9.397e-3
1.567,   9.587e-3
1.569,   9.872e-3
1.571,   1.007e-2
1.573,   1.007e-2
1.575,   1.007e-2
1.576,   1.007e-2