Folder: DASH/Experimental Records and Raw Data/batch5/final500 (part 3)

File: B5_BEST_500_#1_Full(#14)-199mV.txt
June 8, 2023   21:15:31
Linear Sweep Voltammetry
File: d:\current work\al_oer\electrochemical test data\batch 5\500\B5_BEST_500_#1_Full(#14)-199mV.txt
Data Source:  Experiment
Instrument Model:  CHI660E
Header:
Note:

Init E (V) = 0.898

Final E (V) = 1.489

Scan Rate (V/s) = 0.010
Sample Interval (V) = 0.001
Quiet Time (sec) = 2
Sensitivity (A/V) = 0.001
Comp R (ohm) = 3.8

Results:

Channel 1:

Potential/V, Current/A
0.898,   2.967e-4
0.900,   3.678e-4
0.902,   3.543e-4
0.904,   3.614e-4
0.906,   3.558e-4
0.908,   3.565e-4
0.910,   3.531e-4
0.912,   3.487e-4
0.914,   3.543e-4
0.916,   3.425e-4
0.918,   3.543e-4
0.920,   3.374e-4
0.922,   3.494e-4
0.924,   3.266e-4
0.926,   3.394e-4
0.928,   3.239e-4
0.930,   3.329e-4
0.932,   3.194e-4
0.934,   3.218e-4
0.936,   3.191e-4
0.938,   3.209e-4
0.940,   3.206e-4
0.942,   3.156e-4
0.944,   3.213e-4
0.946,   3.160e-4
0.948,   3.229e-4
0.950,   3.096e-4
0.952,   3.220e-4
0.954,   3.027e-4
0.956,   3.194e-4
0.958,   2.967e-4
0.960,   3.122e-4
0.962,   2.962e-4
0.964,   3.057e-4
0.966,   2.938e-4
0.968,   3.015e-4
0.970,   2.995e-4
0.972,   2.980e-4
0.974,   2.998e-4
0.976,   2.968e-4
0.978,   3.032e-4
0.980,   2.909e-4
0.982,   3.030e-4
0.984,   2.910e-4
0.986,   3.034e-4
0.988,   2.860e-4
0.990,   2.992e-4
0.992,   2.829e-4
0.994,   2.942e-4
0.996,   2.815e-4
0.998,   2.890e-4
1.000,   2.822e-4
1.002,   2.893e-4
1.004,   2.838e-4
1.006,   2.873e-4
1.008,   2.889e-4
1.010,   2.839e-4
1.012,   2.920e-4
1.014,   2.842e-4
1.016,   2.954e-4
1.018,   2.792e-4
1.020,   2.921e-4
1.022,   2.750e-4
1.024,   2.872e-4
1.026,   2.746e-4
1.028,   2.810e-4
1.030,   2.717e-4
1.032,   2.833e-4
1.034,   2.759e-4
1.036,   2.795e-4
1.038,   2.774e-4
1.040,   2.823e-4
1.042,   2.869e-4
1.044,   2.798e-4
1.046,   2.882e-4
1.048,   2.733e-4
1.050,   2.920e-4
1.052,   2.725e-4
1.054,   2.869e-4
1.056,   2.712e-4
1.058,   2.843e-4
1.060,   2.700e-4
1.062,   2.869e-4
1.064,   2.709e-4
1.066,   2.837e-4
1.068,   2.724e-4
1.070,   2.816e-4
1.072,   2.781e-4
1.074,   2.796e-4
1.076,   2.857e-4
1.078,   2.785e-4
1.080,   2.902e-4
1.082,   2.759e-4
1.084,   2.925e-4
1.086,   2.737e-4
1.088,   2.946e-4
1.090,   2.726e-4
1.092,   2.933e-4
1.094,   2.696e-4
1.096,   2.910e-4
1.098,   2.758e-4
1.100,   2.847e-4
1.102,   2.892e-4
1.104,   2.823e-4
1.106,   2.950e-4
1.108,   2.837e-4
1.110,   2.948e-4
1.112,   2.865e-4
1.114,   2.999e-4
1.116,   2.803e-4
1.118,   3.009e-4
1.120,   2.804e-4
1.122,   3.044e-4
1.124,   2.820e-4
1.126,   3.013e-4
1.128,   2.855e-4
1.130,   2.998e-4
1.132,   2.882e-4
1.134,   2.972e-4
1.136,   2.979e-4
1.138,   2.951e-4
1.140,   3.065e-4
1.142,   2.937e-4
1.144,   3.126e-4
1.146,   2.938e-4
1.148,   3.158e-4
1.150,   2.942e-4
1.152,   3.139e-4
1.154,   2.977e-4
1.156,   3.160e-4
1.158,   2.975e-4
1.160,   3.155e-4
1.162,   3.036e-4
1.164,   3.127e-4
1.166,   3.096e-4
1.168,   3.117e-4
1.170,   3.213e-4
1.172,   3.111e-4
1.174,   3.269e-4
1.176,   3.117e-4
1.178,   3.341e-4
1.180,   3.087e-4
1.182,   3.408e-4
1.184,   3.102e-4
1.186,   3.402e-4
1.188,   3.139e-4
1.190,   3.378e-4
1.192,   3.187e-4
1.194,   3.354e-4
1.196,   3.247e-4
1.198,   3.336e-4
1.200,   3.366e-4
1.202,   3.349e-4
1.204,   3.449e-4
1.206,   3.297e-4
1.208,   3.579e-4
1.210,   3.285e-4
1.212,   3.657e-4
1.214,   3.318e-4
1.216,   3.678e-4
1.218,   3.339e-4
1.220,   3.688e-4
1.222,   3.387e-4
1.224,   3.651e-4
1.226,   3.479e-4
1.228,   3.621e-4
1.230,   3.537e-4
1.232,   3.568e-4
1.234,   3.712e-4
1.236,   3.555e-4
1.238,   3.856e-4
1.240,   3.560e-4
1.242,   3.989e-4
1.244,   3.539e-4
1.246,   4.027e-4
1.248,   3.592e-4
1.250,   4.049e-4
1.252,   3.662e-4
1.254,   3.982e-4
1.256,   3.735e-4
1.258,   3.935e-4
1.260,   3.858e-4
1.262,   3.904e-4
1.264,   4.025e-4
1.266,   3.947e-4
1.268,   4.185e-4
1.270,   3.904e-4
1.272,   4.330e-4
1.274,   3.913e-4
1.276,   4.427e-4
1.278,   3.931e-4
1.280,   4.440e-4
1.282,   4.015e-4
1.284,   4.452e-4
1.286,   4.074e-4
1.288,   4.435e-4
1.290,   4.228e-4
1.292,   4.361e-4
1.294,   4.393e-4
1.296,   4.345e-4
1.298,   4.602e-4
1.300,   4.367e-4
1.302,   4.639e-4
1.304,   4.376e-4
1.306,   4.788e-4
1.308,   4.413e-4
1.310,   4.820e-4
1.312,   4.521e-4
1.314,   4.842e-4
1.316,   4.629e-4
1.318,   4.889e-4
1.320,   4.778e-4
1.322,   4.885e-4
1.324,   4.995e-4
1.326,   4.900e-4
1.328,   5.185e-4
1.330,   4.915e-4
1.332,   5.345e-4
1.334,   4.918e-4
1.336,   5.509e-4
1.338,   4.982e-4
1.340,   5.607e-4
1.342,   5.077e-4
1.344,   5.510e-4
1.346,   5.282e-4
1.348,   5.545e-4
1.350,   5.466e-4
1.352,   5.647e-4
1.354,   5.698e-4
1.356,   5.669e-4
1.358,   5.986e-4
1.360,   5.750e-4
1.362,   6.215e-4
1.364,   5.859e-4
1.366,   6.497e-4
1.368,   6.012e-4
1.370,   6.715e-4
1.372,   6.211e-4
1.374,   6.787e-4
1.376,   6.475e-4
1.378,   7.030e-4
1.380,   6.786e-4
1.382,   7.209e-4
1.384,   7.211e-4
1.386,   7.429e-4
1.388,   7.639e-4
1.390,   7.699e-4
1.392,   8.259e-4
1.394,   7.965e-4
1.396,   8.997e-4
1.398,   8.373e-4
1.400,   9.739e-4
1.402,   8.902e-4
1.404,   1.032e-3
1.406,   9.618e-4
1.408,   1.100e-3
1.410,   1.043e-3
1.412,   1.176e-3
1.414,   1.158e-3
1.416,   1.255e-3
1.418,   1.294e-3
1.420,   1.371e-3
1.422,   1.474e-3
1.424,   1.503e-3
1.426,   1.687e-3
1.428,   1.680e-3
1.430,   1.964e-3
1.432,   1.910e-3
1.434,   2.293e-3
1.436,   2.180e-3
1.438,   2.628e-3
1.440,   2.600e-3
1.442,   3.056e-3
1.444,   3.130e-3
1.446,   3.586e-3
1.448,   3.813e-3
1.450,   4.236e-3
1.452,   4.730e-3
1.454,   5.046e-3
1.456,   5.897e-3
1.458,   6.083e-3
1.460,   7.156e-3
1.462,   7.170e-3
1.464,   8.425e-3
1.466,   8.445e-3
1.468,   9.361e-3
1.470,   9.548e-3
1.472,   1.003e-2
1.474,   1.007e-2
1.476,   1.007e-2
1.478,   1.007e-2
1.480,   1.007e-2
1.482,   1.007e-2
1.484,   1.007e-2
1.486,   1.007e-2
1.488,   1.007e-2
1.489,   1.007e-2

File: B5_BEST_500_#1_Full(#15)-193mV.txt
June 9, 2023   12:49:15
Linear Sweep Voltammetry
File: d:\current work\al_oer\electrochemical test data\batch 5\500\B5_BEST_500_#1_Full(#15)-193mV.txt
Data Source:  Experiment
Instrument Model:  CHI660E
Header:
Note:

Init E (V) = 0.897

Final E (V) = 1.501

Scan Rate (V/s) = 0.010
Sample Interval (V) = 0.001
Quiet Time (sec) = 2
Sensitivity (A/V) = 0.001
Comp R (ohm) = 4.5

Results:

Channel 1:

Potential/V, Current/A
0.897,   7.354e-4
0.900,   9.266e-4
0.903,   9.486e-4
0.906,   9.243e-4
0.909,   8.667e-4
0.912,   8.144e-4
0.915,   7.745e-4
0.918,   7.462e-4
0.921,   7.452e-4
0.924,   7.722e-4
0.927,   7.912e-4
0.930,   8.061e-4
0.933,   7.779e-4
0.936,   7.299e-4
0.939,   6.959e-4
0.942,   6.822e-4
0.945,   6.664e-4
0.948,   6.758e-4
0.951,   6.964e-4
0.954,   7.292e-4
0.957,   7.251e-4
0.960,   6.899e-4
0.963,   6.596e-4
0.966,   6.416e-4
0.969,   6.301e-4
0.972,   6.192e-4
0.975,   6.225e-4
0.978,   6.705e-4
0.981,   6.872e-4
0.984,   6.718e-4
0.987,   6.372e-4
0.990,   6.069e-4
0.993,   5.972e-4
0.996,   5.975e-4
0.999,   5.924e-4
1.002,   6.141e-4
1.005,   6.551e-4
1.008,   6.582e-4
1.011,   6.240e-4
1.014,   5.973e-4
1.017,   5.907e-4
1.020,   5.825e-4
1.023,   5.757e-4
1.026,   5.827e-4
1.029,   6.134e-4
1.032,   6.335e-4
1.035,   6.269e-4
1.038,   5.986e-4
1.041,   5.829e-4
1.044,   5.764e-4
1.047,   5.675e-4
1.050,   5.686e-4
1.053,   5.977e-4
1.056,   6.267e-4
1.059,   6.372e-4
1.062,   6.200e-4
1.065,   5.890e-4
1.068,   5.717e-4
1.071,   5.625e-4
1.074,   5.661e-4
1.077,   5.807e-4
1.080,   6.180e-4
1.083,   6.448e-4
1.086,   6.255e-4
1.089,   6.090e-4
1.092,   5.826e-4
1.095,   5.785e-4
1.098,   5.731e-4
1.101,   5.860e-4
1.104,   6.102e-4
1.107,   6.266e-4
1.110,   6.496e-4
1.113,   6.306e-4
1.116,   6.109e-4
1.119,   5.991e-4
1.122,   5.966e-4
1.125,   5.909e-4
1.128,   6.103e-4
1.131,   6.440e-4
1.134,   6.480e-4
1.137,   6.588e-4
1.140,   6.253e-4
1.143,   6.202e-4
1.146,   6.118e-4
1.149,   6.106e-4
1.152,   6.158e-4
1.155,   6.558e-4
1.158,   6.904e-4
1.161,   6.911e-4
1.164,   6.719e-4
1.167,   6.492e-4
1.170,   6.434e-4
1.173,   6.306e-4
1.176,   6.522e-4
1.179,   6.742e-4
1.182,   7.140e-4
1.185,   7.278e-4
1.188,   7.279e-4
1.191,   6.954e-4
1.194,   6.761e-4
1.197,   6.585e-4
1.200,   6.559e-4
1.203,   6.885e-4
1.206,   7.309e-4
1.209,   7.680e-4
1.212,   7.546e-4
1.215,   7.328e-4
1.218,   7.220e-4
1.221,   7.209e-4
1.224,   7.410e-4
1.227,   7.359e-4
1.230,   7.636e-4
1.233,   7.813e-4
1.236,   8.171e-4
1.239,   8.082e-4
1.242,   7.840e-4
1.245,   7.798e-4
1.248,   8.058e-4
1.251,   8.150e-4
1.254,   8.032e-4
1.257,   8.586e-4
1.260,   9.057e-4
1.263,   8.986e-4
1.266,   8.672e-4
1.269,   8.206e-4
1.272,   8.302e-4
1.275,   8.425e-4
1.278,   8.540e-4
1.281,   8.618e-4
1.284,   9.005e-4
1.287,   9.563e-4
1.290,   9.541e-4
1.293,   9.017e-4
1.296,   8.508e-4
1.299,   8.303e-4
1.302,   8.382e-4
1.305,   8.733e-4
1.308,   9.337e-4
1.311,   9.968e-4
1.314,   1.006e-3
1.317,   9.764e-4
1.320,   9.212e-4
1.323,   8.994e-4
1.326,   8.651e-4
1.329,   8.940e-4
1.332,   9.284e-4
1.335,   9.884e-4
1.338,   1.046e-3
1.341,   1.043e-3
1.344,   9.908e-4
1.347,   9.578e-4
1.350,   9.591e-4
1.353,   9.815e-4
1.356,   9.779e-4
1.359,   1.012e-3
1.362,   1.051e-3
1.365,   1.100e-3
1.368,   1.073e-3
1.371,   1.051e-3
1.374,   1.080e-3
1.377,   1.126e-3
1.380,   1.095e-3
1.383,   1.131e-3
1.386,   1.168e-3
1.389,   1.264e-3
1.392,   1.305e-3
1.395,   1.301e-3
1.398,   1.283e-3
1.401,   1.302e-3
1.404,   1.360e-3
1.407,   1.415e-3
1.410,   1.515e-3
1.413,   1.665e-3
1.416,   1.819e-3
1.419,   1.910e-3
1.422,   1.948e-3
1.425,   2.080e-3
1.428,   2.228e-3
1.431,   2.470e-3
1.434,   2.675e-3
1.437,   2.983e-3
1.440,   3.381e-3
1.443,   3.903e-3
1.446,   4.399e-3
1.449,   4.946e-3
1.452,   5.606e-3
1.455,   6.428e-3
1.458,   7.183e-3
1.461,   7.885e-3
1.464,   8.774e-3
1.467,   9.553e-3
1.470,   9.997e-3
1.473,   1.007e-2
1.476,   1.007e-2
1.479,   1.007e-2
1.482,   1.007e-2
1.485,   1.007e-2
1.488,   1.007e-2
1.491,   1.007e-2
1.494,   1.007e-2
1.497,   1.007e-2
1.500,   1.007e-2
1.501,   1.007e-2

File: B5_BEST_500_#1_Full(#16)-182mV.txt
June 9, 2023   16:53:15
Linear Sweep Voltammetry
File: d:\current work\al_oer\electrochemical test data\batch 5\500\B5_BEST_500_#1_Full(#16)-182mV.txt
Data Source:  Experiment
Instrument Model:  CHI660E
Header:
Note:

Init E (V) = 0.902

Final E (V) = 1.471

Scan Rate (V/s) = 0.010
Sample Interval (V) = 0.001
Quiet Time (sec) = 2
Sensitivity (A/V) = 0.001
Comp R (ohm) = 3.7

Results:

Channel 1:

Potential/V, Current/A
0.902,   8.788e-4
0.904,   1.051e-3
0.906,   1.037e-3
0.908,   1.007e-3
0.910,   1.011e-3
0.912,   9.612e-4
0.914,   9.763e-4
0.916,   9.173e-4
0.918,   9.495e-4
0.920,   8.876e-4
0.922,   9.204e-4
0.924,   8.665e-4
0.926,   8.997e-4
0.928,   8.353e-4
0.930,   8.744e-4
0.932,   8.243e-4
0.934,   8.608e-4
0.936,   8.067e-4
0.938,   8.379e-4
0.940,   7.921e-4
0.942,   8.275e-4
0.944,   7.788e-4
0.946,   8.061e-4
0.948,   7.656e-4
0.950,   7.954e-4
0.952,   7.535e-4
0.954,   7.801e-4
0.956,   7.467e-4
0.958,   7.719e-4
0.960,   7.361e-4
0.962,   7.611e-4
0.964,   7.291e-4
0.966,   7.516e-4
0.968,   7.243e-4
0.970,   7.345e-4
0.972,   7.176e-4
0.974,   7.355e-4
0.976,   7.044e-4
0.978,   7.274e-4
0.980,   7.026e-4
0.982,   7.228e-4
0.984,   6.977e-4
0.986,   7.133e-4
0.988,   6.951e-4
0.990,   7.067e-4
0.992,   6.919e-4
0.994,   7.009e-4
0.996,   6.871e-4
0.998,   6.959e-4
1.000,   6.901e-4
1.002,   6.883e-4
1.004,   6.824e-4
1.006,   6.878e-4
1.008,   6.762e-4
1.010,   6.817e-4
1.012,   6.696e-4
1.014,   6.814e-4
1.016,   6.730e-4
1.018,   6.760e-4
1.020,   6.739e-4
1.022,   6.779e-4
1.024,   6.699e-4
1.026,   6.743e-4
1.028,   6.670e-4
1.030,   6.708e-4
1.032,   6.724e-4
1.034,   6.680e-4
1.036,   6.775e-4
1.038,   6.681e-4
1.040,   6.736e-4
1.042,   6.664e-4
1.044,   6.765e-4
1.046,   6.677e-4
1.048,   6.802e-4
1.050,   6.653e-4
1.052,   6.851e-4
1.054,   6.668e-4
1.056,   6.790e-4
1.058,   6.679e-4
1.060,   6.851e-4
1.062,   6.713e-4
1.064,   6.874e-4
1.066,   6.667e-4
1.068,   6.893e-4
1.070,   6.725e-4
1.072,   6.902e-4
1.074,   6.788e-4
1.076,   6.920e-4
1.078,   6.763e-4
1.080,   6.973e-4
1.082,   6.738e-4
1.084,   7.080e-4
1.086,   6.802e-4
1.088,   7.033e-4
1.090,   6.766e-4
1.092,   7.081e-4
1.094,   6.822e-4
1.096,   7.078e-4
1.098,   6.897e-4
1.100,   7.076e-4
1.102,   6.895e-4
1.104,   7.086e-4
1.106,   6.914e-4
1.108,   7.091e-4
1.110,   6.987e-4
1.112,   7.138e-4
1.114,   6.996e-4
1.116,   7.227e-4
1.118,   7.086e-4
1.120,   7.213e-4
1.122,   7.094e-4
1.124,   7.265e-4
1.126,   7.121e-4
1.128,   7.299e-4
1.130,   7.099e-4
1.132,   7.318e-4
1.134,   7.132e-4
1.136,   7.474e-4
1.138,   7.211e-4
1.140,   7.468e-4
1.142,   7.260e-4
1.144,   7.472e-4
1.146,   7.218e-4
1.148,   7.551e-4
1.150,   7.300e-4
1.152,   7.559e-4
1.154,   7.327e-4
1.156,   7.552e-4
1.158,   7.456e-4
1.160,   7.569e-4
1.162,   7.505e-4
1.164,   7.680e-4
1.166,   7.602e-4
1.168,   7.604e-4
1.170,   7.662e-4
1.172,   7.648e-4
1.174,   7.732e-4
1.176,   7.694e-4
1.178,   7.785e-4
1.180,   7.800e-4
1.182,   7.888e-4
1.184,   7.790e-4
1.186,   7.921e-4
1.188,   7.949e-4
1.190,   8.033e-4
1.192,   7.988e-4
1.194,   7.994e-4
1.196,   8.067e-4
1.198,   8.083e-4
1.200,   8.095e-4
1.202,   8.185e-4
1.204,   8.106e-4
1.206,   8.259e-4
1.208,   8.239e-4
1.210,   8.323e-4
1.212,   8.360e-4
1.214,   8.411e-4
1.216,   8.486e-4
1.218,   8.464e-4
1.220,   8.408e-4
1.222,   8.683e-4
1.224,   8.638e-4
1.226,   8.703e-4
1.228,   8.527e-4
1.230,   8.912e-4
1.232,   8.536e-4
1.234,   9.005e-4
1.236,   8.738e-4
1.238,   9.000e-4
1.240,   8.755e-4
1.242,   9.134e-4
1.244,   8.929e-4
1.246,   9.200e-4
1.248,   8.907e-4
1.250,   9.291e-4
1.252,   8.974e-4
1.254,   9.302e-4
1.256,   9.071e-4
1.258,   9.468e-4
1.260,   9.138e-4
1.262,   9.501e-4
1.264,   9.214e-4
1.266,   9.449e-4
1.268,   9.293e-4
1.270,   9.603e-4
1.272,   9.303e-4
1.274,   9.675e-4
1.276,   9.329e-4
1.278,   9.708e-4
1.280,   9.349e-4
1.282,   9.794e-4
1.284,   9.447e-4
1.286,   9.857e-4
1.288,   9.585e-4
1.290,   9.733e-4
1.292,   9.487e-4
1.294,   9.937e-4
1.296,   9.493e-4
1.298,   9.930e-4
1.300,   9.625e-4
1.302,   9.888e-4
1.304,   9.695e-4
1.306,   9.946e-4
1.308,   9.767e-4
1.310,   1.009e-3
1.312,   9.871e-4
1.314,   1.008e-3
1.316,   9.788e-4
1.318,   1.013e-3
1.320,   9.914e-4
1.322,   1.015e-3
1.324,   1.004e-3
1.326,   1.027e-3
1.328,   1.006e-3
1.330,   1.027e-3
1.332,   1.025e-3
1.334,   1.029e-3
1.336,   1.027e-3
1.338,   1.046e-3
1.340,   1.035e-3
1.342,   1.056e-3
1.344,   1.049e-3
1.346,   1.070e-3
1.348,   1.066e-3
1.350,   1.084e-3
1.352,   1.078e-3
1.354,   1.096e-3
1.356,   1.094e-3
1.358,   1.111e-3
1.360,   1.113e-3
1.362,   1.126e-3
1.364,   1.133e-3
1.366,   1.153e-3
1.368,   1.160e-3
1.370,   1.147e-3
1.372,   1.204e-3
1.374,   1.184e-3
1.376,   1.240e-3
1.378,   1.219e-3
1.380,   1.285e-3
1.382,   1.255e-3
1.384,   1.323e-3
1.386,   1.308e-3
1.388,   1.385e-3
1.390,   1.371e-3
1.392,   1.448e-3
1.394,   1.436e-3
1.396,   1.518e-3
1.398,   1.527e-3
1.400,   1.614e-3
1.402,   1.617e-3
1.404,   1.730e-3
1.406,   1.742e-3
1.408,   1.855e-3
1.410,   1.899e-3
1.412,   2.014e-3
1.414,   2.068e-3
1.416,   2.228e-3
1.418,   2.297e-3
1.420,   2.439e-3
1.422,   2.533e-3
1.424,   2.725e-3
1.426,   2.868e-3
1.428,   3.106e-3
1.430,   3.268e-3
1.432,   3.572e-3
1.434,   3.743e-3
1.436,   4.144e-3
1.438,   4.438e-3
1.440,   4.887e-3
1.442,   5.185e-3
1.444,   5.790e-3
1.446,   6.250e-3
1.448,   6.981e-3
1.450,   7.445e-3
1.452,   8.351e-3
1.454,   8.922e-3
1.456,   9.759e-3
1.458,   1.007e-2
1.460,   1.007e-2
1.462,   1.007e-2
1.464,   1.007e-2
1.466,   1.007e-2
1.468,   1.007e-2
1.470,   1.007e-2
1.471,   1.007e-2

File: B5_BEST_500_#1_High_Quality(#17)-215mV.txt
June 9, 2023   11:11:40
Linear Sweep Voltammetry
File: d:\current work\al_oer\electrochemical test data\batch 5\500\B5_BEST_500_#1_High_Quality(#17)-215mV.txt
Data Source:  Experiment
Instrument Model:  CHI660E
Header:
Note:

Init E (V) = 0.896

Final E (V) = 1.500

Scan Rate (V/s) = 0.010
Sample Interval (V) = 0.001
Quiet Time (sec) = 2
Sensitivity (A/V) = 0.001
Comp R (ohm) = 5.1

Results:

Channel 1:

Potential/V, Current/A
0.896,   2.326e-4
0.899,   2.629e-4
0.902,   2.633e-4
0.905,   2.573e-4
0.908,   2.577e-4
0.911,   2.503e-4
0.914,   2.495e-4
0.917,   2.492e-4
0.920,   2.404e-4
0.923,   2.429e-4
0.926,   2.395e-4
0.929,   2.341e-4
0.932,   2.359e-4
0.935,   2.309e-4
0.938,   2.296e-4
0.941,   2.282e-4
0.944,   2.263e-4
0.947,   2.239e-4
0.950,   2.225e-4
0.953,   2.217e-4
0.956,   2.202e-4
0.959,   2.165e-4
0.962,   2.174e-4
0.965,   2.159e-4
0.968,   2.124e-4
0.971,   2.141e-4
0.974,   2.127e-4
0.977,   2.114e-4
0.980,   2.105e-4
0.983,   2.098e-4
0.986,   2.082e-4
0.989,   2.072e-4
0.992,   2.059e-4
0.995,   2.078e-4
0.998,   2.040e-4
1.001,   2.025e-4
1.004,   2.034e-4
1.007,   2.016e-4
1.010,   1.994e-4
1.013,   2.019e-4
1.016,   2.020e-4
1.019,   1.991e-4
1.022,   1.997e-4
1.025,   2.011e-4
1.028,   1.995e-4
1.031,   1.979e-4
1.034,   2.001e-4
1.037,   1.977e-4
1.040,   1.952e-4
1.043,   1.978e-4
1.046,   1.962e-4
1.049,   1.920e-4
1.052,   1.959e-4
1.055,   1.945e-4
1.058,   1.927e-4
1.061,   1.963e-4
1.064,   1.960e-4
1.067,   1.957e-4
1.070,   1.970e-4
1.073,   1.957e-4
1.076,   1.973e-4
1.079,   1.949e-4
1.082,   1.948e-4
1.085,   1.955e-4
1.088,   1.914e-4
1.091,   1.977e-4
1.094,   1.963e-4
1.097,   1.929e-4
1.100,   1.985e-4
1.103,   1.979e-4
1.106,   1.964e-4
1.109,   1.988e-4
1.112,   2.008e-4
1.115,   1.998e-4
1.118,   2.015e-4
1.121,   2.027e-4
1.124,   2.022e-4
1.127,   2.004e-4
1.130,   2.035e-4
1.133,   2.022e-4
1.136,   2.022e-4
1.139,   2.040e-4
1.142,   2.040e-4
1.145,   2.051e-4
1.148,   2.051e-4
1.151,   2.072e-4
1.154,   2.076e-4
1.157,   2.104e-4
1.160,   2.103e-4
1.163,   2.123e-4
1.166,   2.132e-4
1.169,   2.157e-4
1.172,   2.128e-4
1.175,   2.166e-4
1.178,   2.157e-4
1.181,   2.167e-4
1.184,   2.202e-4
1.187,   2.170e-4
1.190,   2.199e-4
1.193,   2.245e-4
1.196,   2.189e-4
1.199,   2.292e-4
1.202,   2.302e-4
1.205,   2.276e-4
1.208,   2.355e-4
1.211,   2.363e-4
1.214,   2.372e-4
1.217,   2.364e-4
1.220,   2.320e-4
1.223,   2.301e-4
1.226,   2.376e-4
1.229,   2.469e-4
1.232,   2.539e-4
1.235,   2.453e-4
1.238,   2.473e-4
1.241,   2.440e-4
1.244,   2.432e-4
1.247,   2.622e-4
1.250,   2.635e-4
1.253,   2.550e-4
1.256,   2.639e-4
1.259,   2.599e-4
1.262,   2.660e-4
1.265,   2.643e-4
1.268,   2.685e-4
1.271,   2.774e-4
1.274,   2.564e-4
1.277,   2.827e-4
1.280,   2.821e-4
1.283,   2.625e-4
1.286,   2.967e-4
1.289,   2.801e-4
1.292,   2.790e-4
1.295,   3.009e-4
1.298,   2.827e-4
1.301,   3.007e-4
1.304,   2.994e-4
1.307,   2.923e-4
1.310,   3.069e-4
1.313,   2.897e-4
1.316,   3.100e-4
1.319,   3.157e-4
1.322,   2.876e-4
1.325,   3.289e-4
1.328,   3.149e-4
1.331,   3.030e-4
1.334,   3.484e-4
1.337,   3.203e-4
1.340,   3.272e-4
1.343,   3.535e-4
1.346,   3.306e-4
1.349,   3.470e-4
1.352,   3.444e-4
1.355,   3.525e-4
1.358,   3.661e-4
1.361,   3.410e-4
1.364,   3.883e-4
1.367,   3.771e-4
1.370,   3.617e-4
1.373,   4.209e-4
1.376,   3.914e-4
1.379,   3.967e-4
1.382,   4.406e-4
1.385,   4.163e-4
1.388,   4.398e-4
1.391,   4.664e-4
1.394,   4.640e-4
1.397,   5.024e-4
1.400,   4.945e-4
1.403,   5.356e-4
1.406,   5.697e-4
1.409,   5.522e-4
1.412,   6.424e-4
1.415,   6.662e-4
1.418,   6.596e-4
1.421,   8.019e-4
1.424,   8.169e-4
1.427,   8.668e-4
1.430,   1.040e-3
1.433,   1.085e-3
1.436,   1.225e-3
1.439,   1.434e-3
1.442,   1.567e-3
1.445,   1.814e-3
1.448,   2.064e-3
1.451,   2.398e-3
1.454,   2.781e-3
1.457,   3.134e-3
1.460,   3.768e-3
1.463,   4.401e-3
1.466,   4.900e-3
1.469,   5.823e-3
1.472,   6.630e-3
1.475,   7.203e-3
1.478,   8.371e-3
1.481,   9.238e-3
1.484,   9.904e-3
1.487,   1.007e-2
1.490,   1.007e-2
1.493,   1.007e-2
1.496,   1.007e-2
1.499,   1.007e-2
1.500,   1.007e-2

File: B5_BEST_500_#1_High_Quality(#23)-219mV.txt
June 8, 2023   22:04:10
Linear Sweep Voltammetry
File: d:\current work\al_oer\electrochemical test data\batch 5\500\B5_BEST_500_#1_High_Quality(#23)-219mV.txt
Data Source:  Experiment
Instrument Model:  CHI660E
Header:
Note:

Init E (V) = 0.894

Final E (V) = 1.494

Scan Rate (V/s) = 0.010
Sample Interval (V) = 0.001
Quiet Time (sec) = 2
Sensitivity (A/V) = 0.001
Comp R (ohm) = 4.3

Results:

Channel 1:

Potential/V, Current/A
0.894,   2.223e-4
0.897,   2.721e-4
0.900,   2.825e-4
0.903,   2.782e-4
0.906,   2.682e-4
0.909,   2.759e-4
0.912,   2.638e-4
0.915,   2.600e-4
0.918,   2.648e-4
0.921,   2.522e-4
0.924,   2.519e-4
0.927,   2.530e-4
0.930,   2.414e-4
0.933,   2.460e-4
0.936,   2.413e-4
0.939,   2.326e-4
0.942,   2.407e-4
0.945,   2.313e-4
0.948,   2.287e-4
0.951,   2.344e-4
0.954,   2.254e-4
0.957,   2.257e-4
0.960,   2.258e-4
0.963,   2.182e-4
0.966,   2.240e-4
0.969,   2.182e-4
0.972,   2.139e-4
0.975,   2.195e-4
0.978,   2.135e-4
0.981,   2.120e-4
0.984,   2.160e-4
0.987,   2.094e-4
0.990,   2.113e-4
0.993,   2.108e-4
0.996,   2.046e-4
0.999,   2.105e-4
1.002,   2.051e-4
1.005,   2.032e-4
1.008,   2.085e-4
1.011,   2.023e-4
1.014,   2.021e-4
1.017,   2.054e-4
1.020,   1.980e-4
1.023,   2.021e-4
1.026,   2.014e-4
1.029,   1.961e-4
1.032,   2.015e-4
1.035,   1.984e-4
1.038,   1.975e-4
1.041,   2.033e-4
1.044,   1.959e-4
1.047,   1.971e-4
1.050,   1.994e-4
1.053,   1.937e-4
1.056,   1.986e-4
1.059,   1.963e-4
1.062,   1.939e-4
1.065,   2.002e-4
1.068,   1.940e-4
1.071,   1.937e-4
1.074,   2.003e-4
1.077,   1.931e-4
1.080,   1.964e-4
1.083,   2.001e-4
1.086,   1.925e-4
1.089,   1.996e-4
1.092,   1.961e-4
1.095,   1.941e-4
1.098,   2.014e-4
1.101,   1.951e-4
1.104,   1.968e-4
1.107,   2.019e-4
1.110,   1.951e-4
1.113,   1.991e-4
1.116,   1.993e-4
1.119,   1.960e-4
1.122,   2.030e-4
1.125,   1.986e-4
1.128,   1.986e-4
1.131,   2.080e-4
1.134,   1.981e-4
1.137,   2.029e-4
1.140,   2.071e-4
1.143,   1.996e-4
1.146,   2.073e-4
1.149,   2.052e-4
1.152,   2.018e-4
1.155,   2.118e-4
1.158,   2.051e-4
1.161,   2.063e-4
1.164,   2.150e-4
1.167,   2.055e-4
1.170,   2.100e-4
1.173,   2.142e-4
1.176,   2.083e-4
1.179,   2.163e-4
1.182,   2.123e-4
1.185,   2.131e-4
1.188,   2.226e-4
1.191,   2.141e-4
1.194,   2.170e-4
1.197,   2.251e-4
1.200,   2.167e-4
1.203,   2.225e-4
1.206,   2.223e-4
1.209,   2.194e-4
1.212,   2.298e-4
1.215,   2.244e-4
1.218,   2.246e-4
1.221,   2.365e-4
1.224,   2.289e-4
1.227,   2.330e-4
1.230,   2.406e-4
1.233,   2.301e-4
1.236,   2.391e-4
1.239,   2.380e-4
1.242,   2.347e-4
1.245,   2.462e-4
1.248,   2.421e-4
1.251,   2.406e-4
1.254,   2.553e-4
1.257,   2.447e-4
1.260,   2.493e-4
1.263,   2.572e-4
1.266,   2.484e-4
1.269,   2.612e-4
1.272,   2.585e-4
1.275,   2.539e-4
1.278,   2.709e-4
1.281,   2.629e-4
1.284,   2.626e-4
1.287,   2.786e-4
1.290,   2.674e-4
1.293,   2.742e-4
1.296,   2.829e-4
1.299,   2.712e-4
1.302,   2.893e-4
1.305,   2.853e-4
1.308,   2.819e-4
1.311,   3.024e-4
1.314,   2.904e-4
1.317,   2.957e-4
1.320,   3.092e-4
1.323,   2.993e-4
1.326,   3.102e-4
1.329,   3.164e-4
1.332,   3.063e-4
1.335,   3.320e-4
1.338,   3.255e-4
1.341,   3.208e-4
1.344,   3.505e-4
1.347,   3.334e-4
1.350,   3.408e-4
1.353,   3.595e-4
1.356,   3.448e-4
1.359,   3.706e-4
1.362,   3.674e-4
1.365,   3.623e-4
1.368,   4.006e-4
1.371,   3.824e-4
1.374,   3.902e-4
1.377,   4.303e-4
1.380,   4.075e-4
1.383,   4.308e-4
1.386,   4.526e-4
1.389,   4.415e-4
1.392,   4.867e-4
1.395,   4.833e-4
1.398,   4.921e-4
1.401,   5.527e-4
1.404,   5.376e-4
1.407,   5.677e-4
1.410,   6.266e-4
1.413,   6.174e-4
1.416,   6.788e-4
1.419,   7.240e-4
1.422,   7.467e-4
1.425,   8.508e-4
1.428,   8.885e-4
1.431,   9.637e-4
1.434,   1.118e-3
1.437,   1.173e-3
1.440,   1.322e-3
1.443,   1.514e-3
1.446,   1.640e-3
1.449,   1.933e-3
1.452,   2.138e-3
1.455,   2.418e-3
1.458,   2.885e-3
1.461,   3.110e-3
1.464,   3.620e-3
1.467,   4.234e-3
1.470,   4.560e-3
1.473,   5.308e-3
1.476,   5.971e-3
1.479,   6.579e-3
1.482,   7.601e-3
1.485,   8.090e-3
1.488,   8.925e-3
1.491,   9.486e-3
1.494,   9.663e-3