Folder: DASH/Experimental Records and Raw Data/batch5/final400 (part 4)

File: B5_BEST_400_#1_High_Quality(#28)-188mV.txt
May 31, 2023   16:52:31
Linear Sweep Voltammetry
File: d:\current work\al_oer\electrochemical test data\batch 5\400\B5_BEST_400_#1_High_Quality(#28)-188mV.txt
Data Source:  Experiment
Instrument Model:  CHI660E
Header:
Note:

Init E (V) = 0.909

Final E (V) = 1.486

Scan Rate (V/s) = 0.010
Sample Interval (V) = 0.001
Quiet Time (sec) = 2
Sensitivity (A/V) = 0.001
Comp R (ohm) = 5.5

Results:

Channel 1:

Potential/V, Current/A
0.909,   6.154e-4
0.911,   8.343e-4
0.913,   8.503e-4
0.915,   8.057e-4
0.917,   8.391e-4
0.919,   8.397e-4
0.921,   7.745e-4
0.923,   7.972e-4
0.925,   8.206e-4
0.927,   7.686e-4
0.929,   7.667e-4
0.931,   7.971e-4
0.933,   7.496e-4
0.935,   7.380e-4
0.937,   7.757e-4
0.939,   7.282e-4
0.941,   7.215e-4
0.943,   7.529e-4
0.945,   7.185e-4
0.947,   6.946e-4
0.949,   7.397e-4
0.951,   7.318e-4
0.953,   6.789e-4
0.955,   7.166e-4
0.957,   7.197e-4
0.959,   6.821e-4
0.961,   6.893e-4
0.963,   7.120e-4
0.965,   6.786e-4
0.967,   6.810e-4
0.969,   7.157e-4
0.971,   6.696e-4
0.973,   6.749e-4
0.975,   7.109e-4
0.977,   6.709e-4
0.979,   6.546e-4
0.981,   7.054e-4
0.983,   6.677e-4
0.985,   6.506e-4
0.987,   6.972e-4
0.989,   6.665e-4
0.991,   6.526e-4
0.993,   6.921e-4
0.995,   6.621e-4
0.997,   6.516e-4
0.999,   6.909e-4
1.001,   6.566e-4
1.003,   6.444e-4
1.005,   6.754e-4
1.007,   6.658e-4
1.009,   6.336e-4
1.011,   6.688e-4
1.013,   6.741e-4
1.015,   6.369e-4
1.017,   6.614e-4
1.019,   6.673e-4
1.021,   6.389e-4
1.023,   6.553e-4
1.025,   6.841e-4
1.027,   6.414e-4
1.029,   6.453e-4
1.031,   6.862e-4
1.033,   6.392e-4
1.035,   6.350e-4
1.037,   6.881e-4
1.039,   6.435e-4
1.041,   6.306e-4
1.043,   6.792e-4
1.045,   6.486e-4
1.047,   6.408e-4
1.049,   6.687e-4
1.051,   6.536e-4
1.053,   6.430e-4
1.055,   6.780e-4
1.057,   6.631e-4
1.059,   6.396e-4
1.061,   6.661e-4
1.063,   6.736e-4
1.065,   6.296e-4
1.067,   6.577e-4
1.069,   6.853e-4
1.071,   6.431e-4
1.073,   6.509e-4
1.075,   6.731e-4
1.077,   6.574e-4
1.079,   6.455e-4
1.081,   6.891e-4
1.083,   6.471e-4
1.085,   6.568e-4
1.087,   7.013e-4
1.089,   6.572e-4
1.091,   6.532e-4
1.093,   6.998e-4
1.095,   6.677e-4
1.097,   6.568e-4
1.099,   7.028e-4
1.101,   6.675e-4
1.103,   6.526e-4
1.105,   7.017e-4
1.107,   6.692e-4
1.109,   6.746e-4
1.111,   6.956e-4
1.113,   6.865e-4
1.115,   6.632e-4
1.117,   6.990e-4
1.119,   7.040e-4
1.121,   6.603e-4
1.123,   6.972e-4
1.125,   7.137e-4
1.127,   6.898e-4
1.129,   6.913e-4
1.131,   7.157e-4
1.133,   6.936e-4
1.135,   6.995e-4
1.137,   7.299e-4
1.139,   6.979e-4
1.141,   6.950e-4
1.143,   7.459e-4
1.145,   6.978e-4
1.147,   6.956e-4
1.149,   7.519e-4
1.151,   7.021e-4
1.153,   6.922e-4
1.155,   7.463e-4
1.157,   7.281e-4
1.159,   7.045e-4
1.161,   7.498e-4
1.163,   7.239e-4
1.165,   7.164e-4
1.167,   7.429e-4
1.169,   7.375e-4
1.171,   7.125e-4
1.173,   7.407e-4
1.175,   7.447e-4
1.177,   7.133e-4
1.179,   7.412e-4
1.181,   7.664e-4
1.183,   7.194e-4
1.185,   7.227e-4
1.187,   7.829e-4
1.189,   7.325e-4
1.191,   7.372e-4
1.193,   7.811e-4
1.195,   7.405e-4
1.197,   7.349e-4
1.199,   7.973e-4
1.201,   7.468e-4
1.203,   7.350e-4
1.205,   8.075e-4
1.207,   7.628e-4
1.209,   7.338e-4
1.211,   7.933e-4
1.213,   7.743e-4
1.215,   7.314e-4
1.217,   7.916e-4
1.219,   7.905e-4
1.221,   7.508e-4
1.223,   7.867e-4
1.225,   7.982e-4
1.227,   7.638e-4
1.229,   7.881e-4
1.231,   8.205e-4
1.233,   7.614e-4
1.235,   7.907e-4
1.237,   8.396e-4
1.239,   7.638e-4
1.241,   7.938e-4
1.243,   8.403e-4
1.245,   7.846e-4
1.247,   7.994e-4
1.249,   8.427e-4
1.251,   7.899e-4
1.253,   7.960e-4
1.255,   8.550e-4
1.257,   7.935e-4
1.259,   7.999e-4
1.261,   8.593e-4
1.263,   8.093e-4
1.265,   8.003e-4
1.267,   8.638e-4
1.269,   8.234e-4
1.271,   8.088e-4
1.273,   8.624e-4
1.275,   8.304e-4
1.277,   8.263e-4
1.279,   8.717e-4
1.281,   8.397e-4
1.283,   8.272e-4
1.285,   8.748e-4
1.287,   8.567e-4
1.289,   8.325e-4
1.291,   8.730e-4
1.293,   8.718e-4
1.295,   8.454e-4
1.297,   8.805e-4
1.299,   8.861e-4
1.301,   8.514e-4
1.303,   8.936e-4
1.305,   8.904e-4
1.307,   8.656e-4
1.309,   8.957e-4
1.311,   9.179e-4
1.313,   8.700e-4
1.315,   9.107e-4
1.317,   9.209e-4
1.319,   8.828e-4
1.321,   8.988e-4
1.323,   9.422e-4
1.325,   9.142e-4
1.327,   8.987e-4
1.329,   9.409e-4
1.331,   9.306e-4
1.333,   9.190e-4
1.335,   9.566e-4
1.337,   9.644e-4
1.339,   9.354e-4
1.341,   9.623e-4
1.343,   9.893e-4
1.345,   9.555e-4
1.347,   9.809e-4
1.349,   1.007e-3
1.351,   9.919e-4
1.353,   9.887e-4
1.355,   1.042e-3
1.357,   1.002e-3
1.359,   1.013e-3
1.361,   1.079e-3
1.363,   1.026e-3
1.365,   1.031e-3
1.367,   1.122e-3
1.369,   1.077e-3
1.371,   1.061e-3
1.373,   1.155e-3
1.375,   1.130e-3
1.377,   1.102e-3
1.379,   1.179e-3
1.381,   1.173e-3
1.383,   1.165e-3
1.385,   1.228e-3
1.387,   1.252e-3
1.389,   1.218e-3
1.391,   1.301e-3
1.393,   1.335e-3
1.395,   1.304e-3
1.397,   1.371e-3
1.399,   1.470e-3
1.401,   1.408e-3
1.403,   1.474e-3
1.405,   1.576e-3
1.407,   1.556e-3
1.409,   1.630e-3
1.411,   1.738e-3
1.413,   1.751e-3
1.415,   1.814e-3
1.417,   2.053e-3
1.419,   1.978e-3
1.421,   2.072e-3
1.423,   2.348e-3
1.425,   2.362e-3
1.427,   2.429e-3
1.429,   2.801e-3
1.431,   2.878e-3
1.433,   2.961e-3
1.435,   3.340e-3
1.437,   3.509e-3
1.439,   3.694e-3
1.441,   4.122e-3
1.443,   4.403e-3
1.445,   4.566e-3
1.447,   5.247e-3
1.449,   5.669e-3
1.451,   5.862e-3
1.453,   6.281e-3
1.455,   6.840e-3
1.457,   7.317e-3
1.459,   7.720e-3
1.461,   8.313e-3
1.463,   8.747e-3
1.465,   9.228e-3
1.467,   9.738e-3
1.469,   9.884e-3
1.471,   9.986e-3
1.473,   1.007e-2
1.475,   1.007e-2
1.477,   1.007e-2
1.479,   1.007e-2
1.481,   1.007e-2
1.483,   1.007e-2
1.485,   1.007e-2
1.486,   1.007e-2

File: B5_BEST_400_#1_High_Quality(#29)-237mV.txt
May 30, 2023   21:24:06
Linear Sweep Voltammetry
File: d:\current work\al_oer\electrochemical test data\batch 5\400\B5_BEST_400_#1_High_Quality(#29)-237mV.txt
Data Source:  Experiment
Instrument Model:  CHI660E
Header:
Note:

Init E (V) = 0.902

Final E (V) = 1.541

Scan Rate (V/s) = 0.010
Sample Interval (V) = 0.001
Quiet Time (sec) = 2
Sensitivity (A/V) = 0.001
Comp R (ohm) = 6.0

Results:

Channel 1:

Potential/V, Current/A
0.902,   2.383e-4
0.905,   2.264e-4
0.908,   2.060e-4
0.911,   1.916e-4
0.914,   1.750e-4
0.917,   1.623e-4
0.920,   1.551e-4
0.923,   1.479e-4
0.926,   1.395e-4
0.929,   1.358e-4
0.932,   1.305e-4
0.935,   1.237e-4
0.938,   1.204e-4
0.941,   1.185e-4
0.944,   1.145e-4
0.947,   1.125e-4
0.950,   1.109e-4
0.953,   1.060e-4
0.956,   1.046e-4
0.959,   1.039e-4
0.962,   1.018e-4
0.965,   1.008e-4
0.968,   1.007e-4
0.971,   9.678e-5
0.974,   9.567e-5
0.977,   9.604e-5
0.980,   9.493e-5
0.983,   9.286e-5
0.986,   9.229e-5
0.989,   9.162e-5
0.992,   8.939e-5
0.995,   8.940e-5
0.998,   8.996e-5
1.001,   8.810e-5
1.004,   8.791e-5
1.007,   8.800e-5
1.010,   8.607e-5
1.013,   8.481e-5
1.016,   8.617e-5
1.019,   8.532e-5
1.022,   8.478e-5
1.025,   8.639e-5
1.028,   8.520e-5
1.031,   8.282e-5
1.034,   8.352e-5
1.037,   8.420e-5
1.040,   8.302e-5
1.043,   8.407e-5
1.046,   8.373e-5
1.049,   8.290e-5
1.052,   8.208e-5
1.055,   8.344e-5
1.058,   8.241e-5
1.061,   8.337e-5
1.064,   8.329e-5
1.067,   8.202e-5
1.070,   8.256e-5
1.073,   8.258e-5
1.076,   8.254e-5
1.079,   8.307e-5
1.082,   8.476e-5
1.085,   8.349e-5
1.088,   8.217e-5
1.091,   8.360e-5
1.094,   8.400e-5
1.097,   8.265e-5
1.100,   8.565e-5
1.103,   8.569e-5
1.106,   8.364e-5
1.109,   8.465e-5
1.112,   8.604e-5
1.115,   8.594e-5
1.118,   8.671e-5
1.121,   8.733e-5
1.124,   8.640e-5
1.127,   8.674e-5
1.130,   8.830e-5
1.133,   8.826e-5
1.136,   8.917e-5
1.139,   8.978e-5
1.142,   9.005e-5
1.145,   8.880e-5
1.148,   9.059e-5
1.151,   9.147e-5
1.154,   9.145e-5
1.157,   9.353e-5
1.160,   9.400e-5
1.163,   9.299e-5
1.166,   9.320e-5
1.169,   9.523e-5
1.172,   9.491e-5
1.175,   9.703e-5
1.178,   9.894e-5
1.181,   9.786e-5
1.184,   9.666e-5
1.187,   9.842e-5
1.190,   9.971e-5
1.193,   1.007e-4
1.196,   1.030e-4
1.199,   1.031e-4
1.202,   1.013e-4
1.205,   1.025e-4
1.208,   1.051e-4
1.211,   1.047e-4
1.214,   1.068e-4
1.217,   1.093e-4
1.220,   1.054e-4
1.223,   1.073e-4
1.226,   1.091e-4
1.229,   1.107e-4
1.232,   1.100e-4
1.235,   1.132e-4
1.238,   1.120e-4
1.241,   1.116e-4
1.244,   1.135e-4
1.247,   1.152e-4
1.250,   1.140e-4
1.253,   1.156e-4
1.256,   1.172e-4
1.259,   1.149e-4
1.262,   1.149e-4
1.265,   1.168e-4
1.268,   1.161e-4
1.271,   1.173e-4
1.274,   1.199e-4
1.277,   1.177e-4
1.280,   1.172e-4
1.283,   1.185e-4
1.286,   1.197e-4
1.289,   1.186e-4
1.292,   1.213e-4
1.295,   1.211e-4
1.298,   1.178e-4
1.301,   1.211e-4
1.304,   1.220e-4
1.307,   1.215e-4
1.310,   1.228e-4
1.313,   1.239e-4
1.316,   1.220e-4
1.319,   1.226e-4
1.322,   1.245e-4
1.325,   1.228e-4
1.328,   1.240e-4
1.331,   1.282e-4
1.334,   1.265e-4
1.337,   1.265e-4
1.340,   1.290e-4
1.343,   1.277e-4
1.346,   1.285e-4
1.349,   1.310e-4
1.352,   1.331e-4
1.355,   1.308e-4
1.358,   1.353e-4
1.361,   1.358e-4
1.364,   1.339e-4
1.367,   1.380e-4
1.370,   1.423e-4
1.373,   1.415e-4
1.376,   1.420e-4
1.379,   1.462e-4
1.382,   1.461e-4
1.385,   1.492e-4
1.388,   1.565e-4
1.391,   1.588e-4
1.394,   1.591e-4
1.397,   1.652e-4
1.400,   1.705e-4
1.403,   1.742e-4
1.406,   1.848e-4
1.409,   1.977e-4
1.412,   2.030e-4
1.415,   2.169e-4
1.418,   2.336e-4
1.421,   2.509e-4
1.424,   2.760e-4
1.427,   3.128e-4
1.430,   3.463e-4
1.433,   3.861e-4
1.436,   4.443e-4
1.439,   5.024e-4
1.442,   5.692e-4
1.445,   6.712e-4
1.448,   7.753e-4
1.451,   8.778e-4
1.454,   1.023e-3
1.457,   1.187e-3
1.460,   1.350e-3
1.463,   1.585e-3
1.466,   1.846e-3
1.469,   2.079e-3
1.472,   2.353e-3
1.475,   2.702e-3
1.478,   3.041e-3
1.481,   3.421e-3
1.484,   3.958e-3
1.487,   4.414e-3
1.490,   4.807e-3
1.493,   5.315e-3
1.496,   5.957e-3
1.499,   6.613e-3
1.502,   7.391e-3
1.505,   8.111e-3
1.508,   8.510e-3
1.511,   8.785e-3
1.514,   8.993e-3
1.517,   9.145e-3
1.520,   9.460e-3
1.523,   9.657e-3
1.526,   9.755e-3
1.529,   9.921e-3
1.532,   1.004e-2
1.535,   1.007e-2
1.538,   1.007e-2
1.541,   1.007e-2

File: B5_BEST_400_#1_High_Quality(#30)-234mV.txt
May 30, 2023   21:13:01
Linear Sweep Voltammetry
File: d:\current work\al_oer\electrochemical test data\batch 5\400\B5_BEST_400_#1_High_Quality(#30)-234mV.txt
Data Source:  Experiment
Instrument Model:  CHI660E
Header:
Note:

Init E (V) = 0.901

Final E (V) = 1.536

Scan Rate (V/s) = 0.010
Sample Interval (V) = 0.001
Quiet Time (sec) = 2
Sensitivity (A/V) = 0.001
Comp R (ohm) = 4.9

Results:

Channel 1:

Potential/V, Current/A
0.901,   2.495e-4
0.904,   2.356e-4
0.907,   2.144e-4
0.910,   1.972e-4
0.913,   1.826e-4
0.916,   1.712e-4
0.919,   1.607e-4
0.922,   1.525e-4
0.925,   1.452e-4
0.928,   1.384e-4
0.931,   1.327e-4
0.934,   1.281e-4
0.937,   1.227e-4
0.940,   1.193e-4
0.943,   1.158e-4
0.946,   1.119e-4
0.949,   1.094e-4
0.952,   1.073e-4
0.955,   1.042e-4
0.958,   1.020e-4
0.961,   1.007e-4
0.964,   9.828e-5
0.967,   9.686e-5
0.970,   9.548e-5
0.973,   9.363e-5
0.976,   9.202e-5
0.979,   9.092e-5
0.982,   8.936e-5
0.985,   8.829e-5
0.988,   8.739e-5
0.991,   8.720e-5
0.994,   8.547e-5
0.997,   8.530e-5
1.000,   8.402e-5
1.003,   8.286e-5
1.006,   8.283e-5
1.009,   8.168e-5
1.012,   8.142e-5
1.015,   8.038e-5
1.018,   8.032e-5
1.021,   7.924e-5
1.024,   7.903e-5
1.027,   7.897e-5
1.030,   7.799e-5
1.033,   7.803e-5
1.036,   7.785e-5
1.039,   7.698e-5
1.042,   7.711e-5
1.045,   7.687e-5
1.048,   7.652e-5
1.051,   7.647e-5
1.054,   7.624e-5
1.057,   7.603e-5
1.060,   7.587e-5
1.063,   7.587e-5
1.066,   7.603e-5
1.069,   7.520e-5
1.072,   7.545e-5
1.075,   7.630e-5
1.078,   7.505e-5
1.081,   7.600e-5
1.084,   7.556e-5
1.087,   7.606e-5
1.090,   7.590e-5
1.093,   7.635e-5
1.096,   7.638e-5
1.099,   7.648e-5
1.102,   7.779e-5
1.105,   7.690e-5
1.108,   7.655e-5
1.111,   7.758e-5
1.114,   7.716e-5
1.117,   7.737e-5
1.120,   7.782e-5
1.123,   7.849e-5
1.126,   7.875e-5
1.129,   7.894e-5
1.132,   7.945e-5
1.135,   7.941e-5
1.138,   8.051e-5
1.141,   8.048e-5
1.144,   8.198e-5
1.147,   8.170e-5
1.150,   8.209e-5
1.153,   8.213e-5
1.156,   8.267e-5
1.159,   8.281e-5
1.162,   8.351e-5
1.165,   8.473e-5
1.168,   8.484e-5
1.171,   8.479e-5
1.174,   8.551e-5
1.177,   8.623e-5
1.180,   8.584e-5
1.183,   8.720e-5
1.186,   8.770e-5
1.189,   8.711e-5
1.192,   8.935e-5
1.195,   8.974e-5
1.198,   9.115e-5
1.201,   9.051e-5
1.204,   9.152e-5
1.207,   9.107e-5
1.210,   9.255e-5
1.213,   9.325e-5
1.216,   9.439e-5
1.219,   9.419e-5
1.222,   9.477e-5
1.225,   9.500e-5
1.228,   9.532e-5
1.231,   9.624e-5
1.234,   9.694e-5
1.237,   9.711e-5
1.240,   9.799e-5
1.243,   9.798e-5
1.246,   9.864e-5
1.249,   9.929e-5
1.252,   9.969e-5
1.255,   1.001e-4
1.258,   1.004e-4
1.261,   1.012e-4
1.264,   1.013e-4
1.267,   1.012e-4
1.270,   1.019e-4
1.273,   1.020e-4
1.276,   1.027e-4
1.279,   1.039e-4
1.282,   1.041e-4
1.285,   1.042e-4
1.288,   1.054e-4
1.291,   1.051e-4
1.294,   1.061e-4
1.297,   1.078e-4
1.300,   1.078e-4
1.303,   1.079e-4
1.306,   1.098e-4
1.309,   1.092e-4
1.312,   1.099e-4
1.315,   1.110e-4
1.318,   1.114e-4
1.321,   1.115e-4
1.324,   1.140e-4
1.327,   1.134e-4
1.330,   1.136e-4
1.333,   1.158e-4
1.336,   1.169e-4
1.339,   1.174e-4
1.342,   1.174e-4
1.345,   1.187e-4
1.348,   1.200e-4
1.351,   1.231e-4
1.354,   1.230e-4
1.357,   1.244e-4
1.360,   1.262e-4
1.363,   1.276e-4
1.366,   1.292e-4
1.369,   1.319e-4
1.372,   1.332e-4
1.375,   1.359e-4
1.378,   1.380e-4
1.381,   1.413e-4
1.384,   1.443e-4
1.387,   1.486e-4
1.390,   1.519e-4
1.393,   1.573e-4
1.396,   1.627e-4
1.399,   1.682e-4
1.402,   1.781e-4
1.405,   1.866e-4
1.408,   1.964e-4
1.411,   2.112e-4
1.414,   2.266e-4
1.417,   2.442e-4
1.420,   2.675e-4
1.423,   2.952e-4
1.426,   3.278e-4
1.429,   3.706e-4
1.432,   4.197e-4
1.435,   4.736e-4
1.438,   5.492e-4
1.441,   6.280e-4
1.444,   7.215e-4
1.447,   8.403e-4
1.450,   9.726e-4
1.453,   1.118e-3
1.456,   1.301e-3
1.459,   1.498e-3
1.462,   1.703e-3
1.465,   1.961e-3
1.468,   2.217e-3
1.471,   2.501e-3
1.474,   2.831e-3
1.477,   3.157e-3
1.480,   3.491e-3
1.483,   3.865e-3
1.486,   4.260e-3
1.489,   4.681e-3
1.492,   5.133e-3
1.495,   5.605e-3
1.498,   6.075e-3
1.501,   6.565e-3
1.504,   7.145e-3
1.507,   7.727e-3
1.510,   8.327e-3
1.513,   9.012e-3
1.516,   9.274e-3
1.519,   9.662e-3
1.522,   1.000e-2
1.525,   1.007e-2
1.528,   1.007e-2
1.531,   1.007e-2
1.534,   1.007e-2
1.536,   1.007e-2

File: B5_BEST_400_#1_High_Quality(#32)-214mV.txt
May 31, 2023   14:04:35
Linear Sweep Voltammetry
File: d:\current work\al_oer\electrochemical test data\batch 5\400\B5_BEST_400_#1_High_Quality(#32)-214mV.txt
Data Source:  Experiment
Instrument Model:  CHI660E
Header:
Note:

Init E (V) = 0.898

Final E (V) = 1.525

Scan Rate (V/s) = 0.010
Sample Interval (V) = 0.001
Quiet Time (sec) = 2
Sensitivity (A/V) = 0.001
Comp R (ohm) = 6.0

Results:

Channel 1:

Potential/V, Current/A
0.898,   3.478e-4
0.901,   4.034e-4
0.904,   3.925e-4
0.907,   3.868e-4
0.910,   3.820e-4
0.913,   3.815e-4
0.916,   3.707e-4
0.919,   3.647e-4
0.922,   3.676e-4
0.925,   3.568e-4
0.928,   3.556e-4
0.931,   3.458e-4
0.934,   3.501e-4
0.937,   3.404e-4
0.940,   3.348e-4
0.943,   3.381e-4
0.946,   3.339e-4
0.949,   3.302e-4
0.952,   3.218e-4
0.955,   3.278e-4
0.958,   3.203e-4
0.961,   3.166e-4
0.964,   3.164e-4
0.967,   3.180e-4
0.970,   3.122e-4
0.973,   3.082e-4
0.976,   3.137e-4
0.979,   3.052e-4
0.982,   3.040e-4
0.985,   2.994e-4
0.988,   3.062e-4
0.991,   2.993e-4
0.994,   2.965e-4
0.997,   3.004e-4
1.000,   2.981e-4
1.003,   2.960e-4
1.006,   2.916e-4
1.009,   2.950e-4
1.012,   2.911e-4
1.015,   2.903e-4
1.018,   2.882e-4
1.021,   2.942e-4
1.024,   2.869e-4
1.027,   2.868e-4
1.030,   2.894e-4
1.033,   2.858e-4
1.036,   2.841e-4
1.039,   2.833e-4
1.042,   2.885e-4
1.045,   2.823e-4
1.048,   2.824e-4
1.051,   2.828e-4
1.054,   2.846e-4
1.057,   2.825e-4
1.060,   2.788e-4
1.063,   2.878e-4
1.066,   2.794e-4
1.069,   2.796e-4
1.072,   2.809e-4
1.075,   2.845e-4
1.078,   2.813e-4
1.081,   2.801e-4
1.084,   2.835e-4
1.087,   2.817e-4
1.090,   2.807e-4
1.093,   2.797e-4
1.096,   2.862e-4
1.099,   2.816e-4
1.102,   2.825e-4
1.105,   2.836e-4
1.108,   2.860e-4
1.111,   2.837e-4
1.114,   2.825e-4
1.117,   2.909e-4
1.120,   2.855e-4
1.123,   2.871e-4
1.126,   2.872e-4
1.129,   2.931e-4
1.132,   2.885e-4
1.135,   2.870e-4
1.138,   2.924e-4
1.141,   2.926e-4
1.144,   2.914e-4
1.147,   2.907e-4
1.150,   2.974e-4
1.153,   2.923e-4
1.156,   2.931e-4
1.159,   2.963e-4
1.162,   2.968e-4
1.165,   2.956e-4
1.168,   2.970e-4
1.171,   3.021e-4
1.174,   2.971e-4
1.177,   2.976e-4
1.180,   2.998e-4
1.183,   3.064e-4
1.186,   3.004e-4
1.189,   3.007e-4
1.192,   3.090e-4
1.195,   3.056e-4
1.198,   3.064e-4
1.201,   3.030e-4
1.204,   3.136e-4
1.207,   3.088e-4
1.210,   3.094e-4
1.213,   3.126e-4
1.216,   3.149e-4
1.219,   3.128e-4
1.222,   3.135e-4
1.225,   3.213e-4
1.228,   3.155e-4
1.231,   3.184e-4
1.234,   3.208e-4
1.237,   3.263e-4
1.240,   3.206e-4
1.243,   3.231e-4
1.246,   3.290e-4
1.249,   3.266e-4
1.252,   3.242e-4
1.255,   3.311e-4
1.258,   3.382e-4
1.261,   3.334e-4
1.264,   3.343e-4
1.267,   3.394e-4
1.270,   3.416e-4
1.273,   3.394e-4
1.276,   3.405e-4
1.279,   3.511e-4
1.282,   3.452e-4
1.285,   3.491e-4
1.288,   3.454e-4
1.291,   3.590e-4
1.294,   3.511e-4
1.297,   3.537e-4
1.300,   3.621e-4
1.303,   3.655e-4
1.306,   3.611e-4
1.309,   3.638e-4
1.312,   3.765e-4
1.315,   3.692e-4
1.318,   3.739e-4
1.321,   3.786e-4
1.324,   3.865e-4
1.327,   3.830e-4
1.330,   3.860e-4
1.333,   3.980e-4
1.336,   3.947e-4
1.339,   3.982e-4
1.342,   4.007e-4
1.345,   4.154e-4
1.348,   4.091e-4
1.351,   4.128e-4
1.354,   4.276e-4
1.357,   4.292e-4
1.360,   4.325e-4
1.363,   4.345e-4
1.366,   4.564e-4
1.369,   4.495e-4
1.372,   4.571e-4
1.375,   4.679e-4
1.378,   4.817e-4
1.381,   4.854e-4
1.384,   4.955e-4
1.387,   5.174e-4
1.390,   5.249e-4
1.393,   5.393e-4
1.396,   5.526e-4
1.399,   5.897e-4
1.402,   6.008e-4
1.405,   6.274e-4
1.408,   6.667e-4
1.411,   7.084e-4
1.414,   7.415e-4
1.417,   7.926e-4
1.420,   8.737e-4
1.423,   9.333e-4
1.426,   1.030e-3
1.429,   1.122e-3
1.432,   1.259e-3
1.435,   1.369e-3
1.438,   1.520e-3
1.441,   1.732e-3
1.444,   1.898e-3
1.447,   2.126e-3
1.450,   2.353e-3
1.453,   2.684e-3
1.456,   2.955e-3
1.459,   3.254e-3
1.462,   3.592e-3
1.465,   3.940e-3
1.468,   4.232e-3
1.471,   4.611e-3
1.474,   5.113e-3
1.477,   5.365e-3
1.480,   5.710e-3
1.483,   6.191e-3
1.486,   6.761e-3
1.489,   7.053e-3
1.492,   7.439e-3
1.495,   8.108e-3
1.498,   8.469e-3
1.501,   8.843e-3
1.504,   9.256e-3
1.507,   9.660e-3
1.510,   9.578e-3
1.513,   9.826e-3
1.516,   9.965e-3
1.519,   1.007e-2
1.522,   1.007e-2
1.525,   1.007e-2