Folder: DASH/Experimental Records and Raw Data/batch5/final400 (part 3)

File: B5_BEST_400_#1_High_Quality(#17)-218mV.txt
May 31, 2023   14:39:21
Linear Sweep Voltammetry
File: d:\current work\al_oer\electrochemical test data\batch 5\400\B5_BEST_400_#1_High_Quality(#17)-218mV.txt
Data Source:  Experiment
Instrument Model:  CHI660E
Header:
Note:

Init E (V) = 0.900

Final E (V) = 1.512

Scan Rate (V/s) = 0.010
Sample Interval (V) = 0.001
Quiet Time (sec) = 2
Sensitivity (A/V) = 0.001
Comp R (ohm) = 5.7

Results:

Channel 1:

Potential/V, Current/A
0.900,   2.831e-4
0.903,   3.325e-4
0.906,   3.342e-4
0.909,   3.254e-4
0.912,   3.235e-4
0.915,   3.165e-4
0.918,   3.101e-4
0.921,   3.035e-4
0.924,   3.012e-4
0.927,   2.958e-4
0.930,   2.932e-4
0.933,   2.871e-4
0.936,   2.873e-4
0.939,   2.883e-4
0.942,   2.789e-4
0.945,   2.797e-4
0.948,   2.774e-4
0.951,   2.677e-4
0.954,   2.691e-4
0.957,   2.684e-4
0.960,   2.710e-4
0.963,   2.657e-4
0.966,   2.600e-4
0.969,   2.567e-4
0.972,   2.565e-4
0.975,   2.579e-4
0.978,   2.623e-4
0.981,   2.559e-4
0.984,   2.499e-4
0.987,   2.516e-4
0.990,   2.519e-4
0.993,   2.569e-4
0.996,   2.547e-4
0.999,   2.455e-4
1.002,   2.480e-4
1.005,   2.463e-4
1.008,   2.448e-4
1.011,   2.541e-4
1.014,   2.474e-4
1.017,   2.370e-4
1.020,   2.383e-4
1.023,   2.436e-4
1.026,   2.487e-4
1.029,   2.474e-4
1.032,   2.380e-4
1.035,   2.372e-4
1.038,   2.436e-4
1.041,   2.454e-4
1.044,   2.471e-4
1.047,   2.404e-4
1.050,   2.405e-4
1.053,   2.425e-4
1.056,   2.442e-4
1.059,   2.508e-4
1.062,   2.412e-4
1.065,   2.403e-4
1.068,   2.444e-4
1.071,   2.455e-4
1.074,   2.492e-4
1.077,   2.459e-4
1.080,   2.416e-4
1.083,   2.452e-4
1.086,   2.481e-4
1.089,   2.538e-4
1.092,   2.566e-4
1.095,   2.472e-4
1.098,   2.512e-4
1.101,   2.510e-4
1.104,   2.536e-4
1.107,   2.548e-4
1.110,   2.546e-4
1.113,   2.516e-4
1.116,   2.533e-4
1.119,   2.576e-4
1.122,   2.622e-4
1.125,   2.640e-4
1.128,   2.580e-4
1.131,   2.633e-4
1.134,   2.635e-4
1.137,   2.679e-4
1.140,   2.658e-4
1.143,   2.666e-4
1.146,   2.695e-4
1.149,   2.724e-4
1.152,   2.738e-4
1.155,   2.776e-4
1.158,   2.741e-4
1.161,   2.758e-4
1.164,   2.776e-4
1.167,   2.781e-4
1.170,   2.801e-4
1.173,   2.852e-4
1.176,   2.825e-4
1.179,   2.817e-4
1.182,   2.870e-4
1.185,   2.908e-4
1.188,   2.930e-4
1.191,   2.889e-4
1.194,   2.893e-4
1.197,   2.935e-4
1.200,   3.024e-4
1.203,   3.083e-4
1.206,   3.008e-4
1.209,   2.969e-4
1.212,   2.981e-4
1.215,   3.026e-4
1.218,   3.113e-4
1.221,   3.110e-4
1.224,   3.008e-4
1.227,   3.036e-4
1.230,   3.068e-4
1.233,   3.175e-4
1.236,   3.211e-4
1.239,   3.064e-4
1.242,   3.105e-4
1.245,   3.101e-4
1.248,   3.241e-4
1.251,   3.289e-4
1.254,   3.193e-4
1.257,   3.118e-4
1.260,   3.162e-4
1.263,   3.237e-4
1.266,   3.316e-4
1.269,   3.294e-4
1.272,   3.141e-4
1.275,   3.201e-4
1.278,   3.234e-4
1.281,   3.404e-4
1.284,   3.413e-4
1.287,   3.235e-4
1.290,   3.186e-4
1.293,   3.270e-4
1.296,   3.366e-4
1.299,   3.521e-4
1.302,   3.412e-4
1.305,   3.258e-4
1.308,   3.289e-4
1.311,   3.398e-4
1.314,   3.601e-4
1.317,   3.550e-4
1.320,   3.370e-4
1.323,   3.363e-4
1.326,   3.403e-4
1.329,   3.635e-4
1.332,   3.677e-4
1.335,   3.563e-4
1.338,   3.437e-4
1.341,   3.549e-4
1.344,   3.694e-4
1.347,   3.855e-4
1.350,   3.794e-4
1.353,   3.641e-4
1.356,   3.668e-4
1.359,   3.819e-4
1.362,   4.010e-4
1.365,   3.914e-4
1.368,   3.857e-4
1.371,   3.979e-4
1.374,   4.046e-4
1.377,   4.258e-4
1.380,   4.303e-4
1.383,   4.142e-4
1.386,   4.190e-4
1.389,   4.283e-4
1.392,   4.501e-4
1.395,   4.711e-4
1.398,   4.703e-4
1.401,   4.756e-4
1.404,   4.908e-4
1.407,   5.237e-4
1.410,   5.732e-4
1.413,   5.853e-4
1.416,   5.962e-4
1.419,   6.385e-4
1.422,   6.959e-4
1.425,   7.886e-4
1.428,   8.707e-4
1.431,   9.108e-4
1.434,   1.013e-3
1.437,   1.129e-3
1.440,   1.343e-3
1.443,   1.546e-3
1.446,   1.680e-3
1.449,   1.911e-3
1.452,   2.186e-3
1.455,   2.579e-3
1.458,   2.965e-3
1.461,   3.417e-3
1.464,   3.747e-3
1.467,   4.330e-3
1.470,   4.851e-3
1.473,   5.691e-3
1.476,   6.504e-3
1.479,   6.932e-3
1.482,   7.651e-3
1.485,   8.325e-3
1.488,   9.007e-3
1.491,   9.670e-3
1.494,   9.941e-3
1.497,   1.007e-2
1.500,   1.007e-2
1.503,   1.007e-2
1.506,   1.007e-2
1.509,   1.007e-2
1.512,   1.007e-2

File: B5_BEST_400_#1_High_Quality(#18)-186mV.txt
May 31, 2023   16:40:04
Linear Sweep Voltammetry
File: d:\current work\al_oer\electrochemical test data\batch 5\400\B5_BEST_400_#1_High_Quality(#18)-186mV.txt
Data Source:  Experiment
Instrument Model:  CHI660E
Header:
Note:

Init E (V) = 0.900

Final E (V) = 1.487

Scan Rate (V/s) = 0.010
Sample Interval (V) = 0.001
Quiet Time (sec) = 2
Sensitivity (A/V) = 0.001
Comp R (ohm) = 6.0

Results:

Channel 1:

Potential/V, Current/A
0.900,   4.216e-4
0.902,   4.804e-4
0.904,   5.061e-4
0.906,   4.883e-4
0.908,   4.895e-4
0.910,   4.794e-4
0.912,   4.562e-4
0.914,   4.814e-4
0.916,   4.561e-4
0.918,   4.683e-4
0.920,   4.494e-4
0.922,   4.328e-4
0.924,   4.589e-4
0.926,   4.302e-4
0.928,   4.428e-4
0.930,   4.265e-4
0.932,   4.128e-4
0.934,   4.444e-4
0.936,   4.079e-4
0.938,   4.230e-4
0.940,   4.102e-4
0.942,   3.966e-4
0.944,   4.176e-4
0.946,   4.070e-4
0.948,   4.021e-4
0.950,   3.980e-4
0.952,   3.853e-4
0.954,   4.025e-4
0.956,   3.943e-4
0.958,   3.865e-4
0.960,   4.009e-4
0.962,   3.804e-4
0.964,   3.900e-4
0.966,   3.902e-4
0.968,   3.734e-4
0.970,   3.843e-4
0.972,   3.748e-4
0.974,   3.857e-4
0.976,   3.756e-4
0.978,   3.660e-4
0.980,   3.888e-4
0.982,   3.602e-4
0.984,   3.804e-4
0.986,   3.715e-4
0.988,   3.572e-4
0.990,   3.733e-4
0.992,   3.653e-4
0.994,   3.687e-4
0.996,   3.723e-4
0.998,   3.514e-4
1.000,   3.710e-4
1.002,   3.568e-4
1.004,   3.665e-4
1.006,   3.667e-4
1.008,   3.475e-4
1.010,   3.715e-4
1.012,   3.541e-4
1.014,   3.600e-4
1.016,   3.687e-4
1.018,   3.468e-4
1.020,   3.628e-4
1.022,   3.513e-4
1.024,   3.645e-4
1.026,   3.574e-4
1.028,   3.420e-4
1.030,   3.710e-4
1.032,   3.499e-4
1.034,   3.563e-4
1.036,   3.607e-4
1.038,   3.424e-4
1.040,   3.618e-4
1.042,   3.480e-4
1.044,   3.597e-4
1.046,   3.560e-4
1.048,   3.394e-4
1.050,   3.620e-4
1.052,   3.492e-4
1.054,   3.552e-4
1.056,   3.570e-4
1.058,   3.418e-4
1.060,   3.656e-4
1.062,   3.490e-4
1.064,   3.518e-4
1.066,   3.663e-4
1.068,   3.437e-4
1.070,   3.657e-4
1.072,   3.547e-4
1.074,   3.555e-4
1.076,   3.644e-4
1.078,   3.457e-4
1.080,   3.695e-4
1.082,   3.518e-4
1.084,   3.621e-4
1.086,   3.665e-4
1.088,   3.489e-4
1.090,   3.760e-4
1.092,   3.588e-4
1.094,   3.633e-4
1.096,   3.710e-4
1.098,   3.537e-4
1.100,   3.784e-4
1.102,   3.625e-4
1.104,   3.610e-4
1.106,   3.850e-4
1.108,   3.525e-4
1.110,   3.889e-4
1.112,   3.640e-4
1.114,   3.644e-4
1.116,   3.888e-4
1.118,   3.617e-4
1.120,   3.904e-4
1.122,   3.771e-4
1.124,   3.717e-4
1.126,   3.953e-4
1.128,   3.674e-4
1.130,   4.012e-4
1.132,   3.844e-4
1.134,   3.769e-4
1.136,   4.099e-4
1.138,   3.745e-4
1.140,   4.064e-4
1.142,   3.995e-4
1.144,   3.788e-4
1.146,   4.175e-4
1.148,   3.868e-4
1.150,   4.109e-4
1.152,   4.076e-4
1.154,   3.840e-4
1.156,   4.311e-4
1.158,   3.961e-4
1.160,   4.194e-4
1.162,   3.992e-4
1.164,   3.961e-4
1.166,   4.419e-4
1.168,   4.003e-4
1.170,   4.186e-4
1.172,   4.227e-4
1.174,   3.971e-4
1.176,   4.440e-4
1.178,   4.093e-4
1.180,   4.300e-4
1.182,   4.184e-4
1.184,   4.090e-4
1.186,   4.597e-4
1.188,   4.232e-4
1.190,   4.352e-4
1.192,   4.363e-4
1.194,   4.176e-4
1.196,   4.731e-4
1.198,   4.216e-4
1.200,   4.403e-4
1.202,   4.559e-4
1.204,   4.280e-4
1.206,   4.769e-4
1.208,   4.397e-4
1.210,   4.561e-4
1.212,   4.599e-4
1.214,   4.404e-4
1.216,   4.893e-4
1.218,   4.569e-4
1.220,   4.687e-4
1.222,   4.862e-4
1.224,   4.533e-4
1.226,   5.096e-4
1.228,   4.800e-4
1.230,   4.751e-4
1.232,   5.014e-4
1.234,   4.702e-4
1.236,   5.230e-4
1.238,   4.918e-4
1.240,   4.905e-4
1.242,   5.123e-4
1.244,   4.830e-4
1.246,   5.522e-4
1.248,   4.998e-4
1.250,   5.070e-4
1.252,   5.507e-4
1.254,   5.028e-4
1.256,   5.593e-4
1.258,   5.197e-4
1.260,   5.214e-4
1.262,   5.689e-4
1.264,   5.219e-4
1.266,   5.831e-4
1.268,   5.521e-4
1.270,   5.388e-4
1.272,   5.999e-4
1.274,   5.293e-4
1.276,   5.939e-4
1.278,   5.856e-4
1.280,   5.522e-4
1.282,   6.065e-4
1.284,   5.767e-4
1.286,   6.214e-4
1.288,   5.892e-4
1.290,   5.830e-4
1.292,   6.562e-4
1.294,   5.827e-4
1.296,   6.351e-4
1.298,   6.396e-4
1.300,   6.068e-4
1.302,   6.829e-4
1.304,   6.080e-4
1.306,   6.726e-4
1.308,   6.801e-4
1.310,   6.246e-4
1.312,   7.163e-4
1.314,   6.453e-4
1.316,   6.998e-4
1.318,   7.091e-4
1.320,   6.624e-4
1.322,   7.499e-4
1.324,   6.980e-4
1.326,   7.154e-4
1.328,   7.380e-4
1.330,   6.925e-4
1.332,   8.006e-4
1.334,   7.178e-4
1.336,   7.674e-4
1.338,   7.924e-4
1.340,   7.244e-4
1.342,   8.409e-4
1.344,   7.757e-4
1.346,   8.102e-4
1.348,   8.350e-4
1.350,   7.879e-4
1.352,   8.909e-4
1.354,   8.380e-4
1.356,   8.560e-4
1.358,   8.809e-4
1.360,   8.530e-4
1.362,   9.721e-4
1.364,   8.708e-4
1.366,   9.196e-4
1.368,   9.709e-4
1.370,   8.952e-4
1.372,   1.023e-3
1.374,   9.769e-4
1.376,   9.882e-4
1.378,   1.051e-3
1.380,   9.979e-4
1.382,   1.123e-3
1.384,   1.037e-3
1.386,   1.089e-3
1.388,   1.178e-3
1.390,   1.119e-3
1.392,   1.233e-3
1.394,   1.223e-3
1.396,   1.252e-3
1.398,   1.320e-3
1.400,   1.285e-3
1.402,   1.456e-3
1.404,   1.420e-3
1.406,   1.442e-3
1.408,   1.614e-3
1.410,   1.548e-3
1.412,   1.750e-3
1.414,   1.721e-3
1.416,   1.794e-3
1.418,   2.033e-3
1.420,   2.003e-3
1.422,   2.229e-3
1.424,   2.334e-3
1.426,   2.398e-3
1.428,   2.676e-3
1.430,   2.800e-3
1.432,   3.139e-3
1.434,   3.258e-3
1.436,   3.386e-3
1.438,   4.049e-3
1.440,   4.046e-3
1.442,   4.526e-3
1.444,   5.085e-3
1.446,   5.184e-3
1.448,   6.059e-3
1.450,   6.387e-3
1.452,   7.067e-3
1.454,   7.623e-3
1.456,   7.701e-3
1.458,   8.816e-3
1.460,   9.009e-3
1.462,   9.242e-3
1.464,   9.561e-3
1.466,   9.404e-3
1.468,   9.835e-3
1.470,   9.947e-3
1.472,   1.006e-2
1.474,   1.007e-2
1.476,   1.007e-2
1.478,   1.007e-2
1.480,   1.007e-2
1.482,   1.007e-2
1.484,   1.007e-2
1.486,   1.007e-2
1.487,   1.007e-2

File: B5_BEST_400_#1_High_Quality(#19)-208mV.txt
May 30, 2023   22:01:59
Linear Sweep Voltammetry
File: d:\current work\al_oer\electrochemical test data\batch 5\400\B5_BEST_400_#1_High_Quality(#19)-208mV.txt
Data Source:  Experiment
Instrument Model:  CHI660E
Header:
Note:

Init E (V) = 0.898

Final E (V) = 1.521

Scan Rate (V/s) = 0.010
Sample Interval (V) = 0.001
Quiet Time (sec) = 2
Sensitivity (A/V) = 0.001
Comp R (ohm) = 7.3

Results:

Channel 1:

Potential/V, Current/A
0.898,   3.261e-3
0.901,   2.859e-3
0.904,   2.525e-3
0.907,   2.240e-3
0.910,   2.004e-3
0.913,   1.815e-3
0.916,   1.650e-3
0.919,   1.521e-3
0.922,   1.404e-3
0.925,   1.304e-3
0.928,   1.219e-3
0.931,   1.138e-3
0.934,   1.080e-3
0.937,   1.020e-3
0.940,   9.637e-4
0.943,   9.228e-4
0.946,   8.806e-4
0.949,   8.428e-4
0.952,   8.084e-4
0.955,   7.800e-4
0.958,   7.515e-4
0.961,   7.284e-4
0.964,   7.066e-4
0.967,   6.881e-4
0.970,   6.686e-4
0.973,   6.525e-4
0.976,   6.351e-4
0.979,   6.223e-4
0.982,   6.088e-4
0.985,   5.939e-4
0.988,   5.864e-4
0.991,   5.757e-4
0.994,   5.690e-4
0.997,   5.570e-4
1.000,   5.529e-4
1.003,   5.426e-4
1.006,   5.369e-4
1.009,   5.294e-4
1.012,   5.254e-4
1.015,   5.206e-4
1.018,   5.158e-4
1.021,   5.100e-4
1.024,   5.065e-4
1.027,   5.017e-4
1.030,   4.987e-4
1.033,   4.950e-4
1.036,   4.905e-4
1.039,   4.905e-4
1.042,   4.893e-4
1.045,   4.873e-4
1.048,   4.852e-4
1.051,   4.831e-4
1.054,   4.801e-4
1.057,   4.795e-4
1.060,   4.789e-4
1.063,   4.796e-4
1.066,   4.776e-4
1.069,   4.775e-4
1.072,   4.751e-4
1.075,   4.784e-4
1.078,   4.761e-4
1.081,   4.766e-4
1.084,   4.775e-4
1.087,   4.806e-4
1.090,   4.805e-4
1.093,   4.818e-4
1.096,   4.817e-4
1.099,   4.836e-4
1.102,   4.833e-4
1.105,   4.858e-4
1.108,   4.850e-4
1.111,   4.865e-4
1.114,   4.870e-4
1.117,   4.883e-4
1.120,   4.896e-4
1.123,   4.894e-4
1.126,   4.915e-4
1.129,   4.904e-4
1.132,   4.902e-4
1.135,   4.920e-4
1.138,   4.923e-4
1.141,   4.930e-4
1.144,   4.944e-4
1.147,   4.953e-4
1.150,   4.959e-4
1.153,   4.989e-4
1.156,   4.995e-4
1.159,   5.008e-4
1.162,   5.006e-4
1.165,   5.007e-4
1.168,   5.035e-4
1.171,   5.062e-4
1.174,   5.059e-4
1.177,   5.100e-4
1.180,   5.130e-4
1.183,   5.164e-4
1.186,   5.171e-4
1.189,   5.204e-4
1.192,   5.217e-4
1.195,   5.250e-4
1.198,   5.241e-4
1.201,   5.323e-4
1.204,   5.324e-4
1.207,   5.402e-4
1.210,   5.404e-4
1.213,   5.479e-4
1.216,   5.492e-4
1.219,   5.544e-4
1.222,   5.561e-4
1.225,   5.608e-4
1.228,   5.648e-4
1.231,   5.674e-4
1.234,   5.709e-4
1.237,   5.728e-4
1.240,   5.776e-4
1.243,   5.843e-4
1.246,   5.881e-4
1.249,   5.886e-4
1.252,   5.970e-4
1.255,   5.992e-4
1.258,   6.052e-4
1.261,   6.063e-4
1.264,   6.136e-4
1.267,   6.159e-4
1.270,   6.224e-4
1.273,   6.268e-4
1.276,   6.336e-4
1.279,   6.403e-4
1.282,   6.460e-4
1.285,   6.518e-4
1.288,   6.535e-4
1.291,   6.609e-4
1.294,   6.648e-4
1.297,   6.736e-4
1.300,   6.767e-4
1.303,   6.816e-4
1.306,   6.880e-4
1.309,   6.946e-4
1.312,   6.998e-4
1.315,   7.077e-4
1.318,   7.135e-4
1.321,   7.213e-4
1.324,   7.261e-4
1.327,   7.374e-4
1.330,   7.427e-4
1.333,   7.522e-4
1.336,   7.589e-4
1.339,   7.734e-4
1.342,   7.773e-4
1.345,   7.925e-4
1.348,   7.980e-4
1.351,   8.097e-4
1.354,   8.212e-4
1.357,   8.337e-4
1.360,   8.445e-4
1.363,   8.567e-4
1.366,   8.704e-4
1.369,   8.798e-4
1.372,   8.981e-4
1.375,   9.135e-4
1.378,   9.293e-4
1.381,   9.508e-4
1.384,   9.674e-4
1.387,   9.849e-4
1.390,   1.004e-3
1.393,   1.027e-3
1.396,   1.044e-3
1.399,   1.076e-3
1.402,   1.101e-3
1.405,   1.132e-3
1.408,   1.165e-3
1.411,   1.200e-3
1.414,   1.244e-3
1.417,   1.296e-3
1.420,   1.357e-3
1.423,   1.416e-3
1.426,   1.492e-3
1.429,   1.571e-3
1.432,   1.679e-3
1.435,   1.784e-3
1.438,   1.911e-3
1.441,   2.049e-3
1.444,   2.211e-3
1.447,   2.387e-3
1.450,   2.598e-3
1.453,   2.805e-3
1.456,   3.038e-3
1.459,   3.290e-3
1.462,   3.589e-3
1.465,   3.878e-3
1.468,   4.238e-3
1.471,   4.581e-3
1.474,   4.965e-3
1.477,   5.344e-3
1.480,   5.780e-3
1.483,   6.219e-3
1.486,   6.662e-3
1.489,   7.089e-3
1.492,   7.521e-3
1.495,   8.119e-3
1.498,   8.504e-3
1.501,   8.941e-3
1.504,   9.172e-3
1.507,   9.803e-3
1.510,   9.974e-3
1.513,   1.006e-2
1.516,   1.007e-2
1.519,   1.007e-2
1.521,   1.007e-2

File: B5_BEST_400_#1_High_Quality(#24)-208mV.txt
May 31, 2023   14:44:44
Linear Sweep Voltammetry
File: d:\current work\al_oer\electrochemical test data\batch 5\400\B5_BEST_400_#1_High_Quality(#24)-208mV.txt
Data Source:  Experiment
Instrument Model:  CHI660E
Header:
Note:

Init E (V) = 0.905

Final E (V) = 1.542

Scan Rate (V/s) = 0.010
Sample Interval (V) = 0.001
Quiet Time (sec) = 2
Sensitivity (A/V) = 0.001
Comp R (ohm) = 3.5

Results:

Channel 1:
Ep = 1.499V
ip = 9.023e-3A
Ah = 1.408e-2C

Potential/V, Current/A
0.905,   4.705e-4
0.908,   5.365e-4
0.911,   5.332e-4
0.914,   5.189e-4
0.917,   5.013e-4
0.920,   4.940e-4
0.923,   4.828e-4
0.926,   4.677e-4
0.929,   4.580e-4
0.932,   4.476e-4
0.935,   4.415e-4
0.938,   4.336e-4
0.941,   4.216e-4
0.944,   4.167e-4
0.947,   4.110e-4
0.950,   4.017e-4
0.953,   3.964e-4
0.956,   3.915e-4
0.959,   3.879e-4
0.962,   3.838e-4
0.965,   3.747e-4
0.968,   3.736e-4
0.971,   3.695e-4
0.974,   3.653e-4
0.977,   3.609e-4
0.980,   3.573e-4
0.983,   3.572e-4
0.986,   3.541e-4
0.989,   3.477e-4
0.992,   3.470e-4
0.995,   3.454e-4
0.998,   3.440e-4
1.001,   3.388e-4
1.004,   3.362e-4
1.007,   3.380e-4
1.010,   3.382e-4
1.013,   3.317e-4
1.016,   3.324e-4
1.019,   3.309e-4
1.022,   3.296e-4
1.025,   3.294e-4
1.028,   3.265e-4
1.031,   3.263e-4
1.034,   3.259e-4
1.037,   3.233e-4
1.040,   3.241e-4
1.043,   3.232e-4
1.046,   3.237e-4
1.049,   3.233e-4
1.052,   3.196e-4
1.055,   3.218e-4
1.058,   3.223e-4
1.061,   3.199e-4
1.064,   3.218e-4
1.067,   3.194e-4
1.070,   3.230e-4
1.073,   3.227e-4
1.076,   3.183e-4
1.079,   3.220e-4
1.082,   3.218e-4
1.085,   3.221e-4
1.088,   3.227e-4
1.091,   3.219e-4
1.094,   3.257e-4
1.097,   3.269e-4
1.100,   3.240e-4
1.103,   3.263e-4
1.106,   3.271e-4
1.109,   3.293e-4
1.112,   3.291e-4
1.115,   3.275e-4
1.118,   3.335e-4
1.121,   3.343e-4
1.124,   3.324e-4
1.127,   3.357e-4
1.130,   3.344e-4
1.133,   3.391e-4
1.136,   3.426e-4
1.139,   3.376e-4
1.142,   3.426e-4
1.145,   3.467e-4
1.148,   3.440e-4
1.151,   3.490e-4
1.154,   3.466e-4
1.157,   3.536e-4
1.160,   3.531e-4
1.163,   3.517e-4
1.166,   3.561e-4
1.169,   3.597e-4
1.172,   3.570e-4
1.175,   3.632e-4
1.178,   3.627e-4
1.181,   3.676e-4
1.184,   3.696e-4
1.187,   3.671e-4
1.190,   3.722e-4
1.193,   3.744e-4
1.196,   3.761e-4
1.199,   3.787e-4
1.202,   3.784e-4
1.205,   3.863e-4
1.208,   3.865e-4
1.211,   3.872e-4
1.214,   3.902e-4
1.217,   3.939e-4
1.220,   3.964e-4
1.223,   4.007e-4
1.226,   3.971e-4
1.229,   4.059e-4
1.232,   4.061e-4
1.235,   4.090e-4
1.238,   4.114e-4
1.241,   4.148e-4
1.244,   4.198e-4
1.247,   4.222e-4
1.250,   4.215e-4
1.253,   4.261e-4
1.256,   4.310e-4
1.259,   4.324e-4
1.262,   4.334e-4
1.265,   4.383e-4
1.268,   4.436e-4
1.271,   4.474e-4
1.274,   4.458e-4
1.277,   4.535e-4
1.280,   4.557e-4
1.283,   4.591e-4
1.286,   4.657e-4
1.289,   4.642e-4
1.292,   4.748e-4
1.295,   4.780e-4
1.298,   4.791e-4
1.301,   4.850e-4
1.304,   4.874e-4
1.307,   4.972e-4
1.310,   4.984e-4
1.313,   4.982e-4
1.316,   5.119e-4
1.319,   5.132e-4
1.322,   5.153e-4
1.325,   5.240e-4
1.328,   5.264e-4
1.331,   5.407e-4
1.334,   5.404e-4
1.337,   5.482e-4
1.340,   5.596e-4
1.343,   5.667e-4
1.346,   5.699e-4
1.349,   5.796e-4
1.352,   5.842e-4
1.355,   5.980e-4
1.358,   6.107e-4
1.361,   6.168e-4
1.364,   6.273e-4
1.367,   6.424e-4
1.370,   6.527e-4
1.373,   6.718e-4
1.376,   6.784e-4
1.379,   7.026e-4
1.382,   7.145e-4
1.385,   7.283e-4
1.388,   7.532e-4
1.391,   7.721e-4
1.394,   7.928e-4
1.397,   8.221e-4
1.400,   8.423e-4
1.403,   8.863e-4
1.406,   9.224e-4
1.409,   9.556e-4
1.412,   1.014e-3
1.415,   1.069e-3
1.418,   1.135e-3
1.421,   1.205e-3
1.424,   1.277e-3
1.427,   1.397e-3
1.430,   1.519e-3
1.433,   1.620e-3
1.436,   1.788e-3
1.439,   1.954e-3
1.442,   2.148e-3
1.445,   2.361e-3
1.448,   2.587e-3
1.451,   2.889e-3
1.454,   3.185e-3
1.457,   3.441e-3
1.460,   3.819e-3
1.463,   4.118e-3
1.466,   4.531e-3
1.469,   4.880e-3
1.472,   5.238e-3
1.475,   5.662e-3
1.478,   6.125e-3
1.481,   6.502e-3
1.484,   7.005e-3
1.487,   7.346e-3
1.490,   7.876e-3
1.493,   8.320e-3
1.496,   8.711e-3
1.499,   9.130e-3
1.502,   9.607e-3
1.505,   9.625e-3
1.508,   5.341e-3
1.511,   3.908e-3
1.514,   4.048e-3
1.517,   5.240e-3
1.520,   4.469e-3
1.523,   4.124e-3
1.526,   4.163e-3
1.529,   3.864e-3
1.532,   4.057e-3
1.535,   3.583e-3
1.538,   3.344e-3
1.541,   3.834e-3
1.542,   4.218e-3

File: B5_BEST_400_#1_High_Quality(#25)-193mV.txt
May 31, 2023   13:25:10
Linear Sweep Voltammetry
File: d:\current work\al_oer\electrochemical test data\batch 5\400\B5_BEST_400_#1_High_Quality(#25)-193mV.txt
Data Source:  Experiment
Instrument Model:  CHI660E
Header:
Note:

Init E (V) = 0.896

Final E (V) = 1.486

Scan Rate (V/s) = 0.010
Sample Interval (V) = 0.001
Quiet Time (sec) = 2
Sensitivity (A/V) = 0.001
Comp R (ohm) = 6.0

Results:

Channel 1:

Potential/V, Current/A
0.896,   3.707e-4
0.898,   4.378e-4
0.900,   4.418e-4
0.902,   4.384e-4
0.904,   4.285e-4
0.906,   4.265e-4
0.908,   4.167e-4
0.910,   4.173e-4
0.912,   4.125e-4
0.914,   4.019e-4
0.916,   4.005e-4
0.918,   3.929e-4
0.920,   3.918e-4
0.922,   3.902e-4
0.924,   3.761e-4
0.926,   3.799e-4
0.928,   3.730e-4
0.930,   3.731e-4
0.932,   3.680e-4
0.934,   3.590e-4
0.936,   3.648e-4
0.938,   3.608e-4
0.940,   3.568e-4
0.942,   3.499e-4
0.944,   3.487e-4
0.946,   3.471e-4
0.948,   3.454e-4
0.950,   3.457e-4
0.952,   3.363e-4
0.954,   3.379e-4
0.956,   3.362e-4
0.958,   3.357e-4
0.960,   3.342e-4
0.962,   3.262e-4
0.964,   3.276e-4
0.966,   3.281e-4
0.968,   3.286e-4
0.970,   3.255e-4
0.972,   3.169e-4
0.974,   3.220e-4
0.976,   3.207e-4
0.978,   3.205e-4
0.980,   3.152e-4
0.982,   3.147e-4
0.984,   3.143e-4
0.986,   3.161e-4
0.988,   3.184e-4
0.990,   3.076e-4
0.992,   3.120e-4
0.994,   3.118e-4
0.996,   3.118e-4
0.998,   3.104e-4
1.000,   3.024e-4
1.002,   3.060e-4
1.004,   3.050e-4
1.006,   3.074e-4
1.008,   3.060e-4
1.010,   2.994e-4
1.012,   3.043e-4
1.014,   3.039e-4
1.016,   3.043e-4
1.018,   2.989e-4
1.020,   3.001e-4
1.022,   3.012e-4
1.024,   3.009e-4
1.026,   3.012e-4
1.028,   2.955e-4
1.030,   3.006e-4
1.032,   2.977e-4
1.034,   2.990e-4
1.036,   3.008e-4
1.038,   2.929e-4
1.040,   3.006e-4
1.042,   2.951e-4
1.044,   2.999e-4
1.046,   2.986e-4
1.048,   2.930e-4
1.050,   2.977e-4
1.052,   2.980e-4
1.054,   3.002e-4
1.056,   2.978e-4
1.058,   2.937e-4
1.060,   2.948e-4
1.062,   2.996e-4
1.064,   3.009e-4
1.066,   2.934e-4
1.068,   2.985e-4
1.070,   2.992e-4
1.072,   2.988e-4
1.074,   3.022e-4
1.076,   2.944e-4
1.078,   3.030e-4
1.080,   3.012e-4
1.082,   3.025e-4
1.084,   3.041e-4
1.086,   2.945e-4
1.088,   3.054e-4
1.090,   3.029e-4
1.092,   3.032e-4
1.094,   3.050e-4
1.096,   3.027e-4
1.098,   3.065e-4
1.100,   3.069e-4
1.102,   3.105e-4
1.104,   3.045e-4
1.106,   3.118e-4
1.108,   3.118e-4
1.110,   3.117e-4
1.112,   3.156e-4
1.114,   3.093e-4
1.116,   3.182e-4
1.118,   3.152e-4
1.120,   3.167e-4
1.122,   3.200e-4
1.124,   3.124e-4
1.126,   3.237e-4
1.128,   3.202e-4
1.130,   3.250e-4
1.132,   3.232e-4
1.134,   3.214e-4
1.136,   3.276e-4
1.138,   3.270e-4
1.140,   3.307e-4
1.142,   3.280e-4
1.144,   3.307e-4
1.146,   3.325e-4
1.148,   3.346e-4
1.150,   3.374e-4
1.152,   3.322e-4
1.154,   3.384e-4
1.156,   3.375e-4
1.158,   3.412e-4
1.160,   3.420e-4
1.162,   3.396e-4
1.164,   3.450e-4
1.166,   3.445e-4
1.168,   3.506e-4
1.170,   3.476e-4
1.172,   3.429e-4
1.174,   3.526e-4
1.176,   3.517e-4
1.178,   3.546e-4
1.180,   3.504e-4
1.182,   3.534e-4
1.184,   3.601e-4
1.186,   3.594e-4
1.188,   3.611e-4
1.190,   3.599e-4
1.192,   3.643e-4
1.194,   3.673e-4
1.196,   3.675e-4
1.198,   3.701e-4
1.200,   3.690e-4
1.202,   3.766e-4
1.204,   3.728e-4
1.206,   3.763e-4
1.208,   3.805e-4
1.210,   3.733e-4
1.212,   3.922e-4
1.214,   3.829e-4
1.216,   3.878e-4
1.218,   3.887e-4
1.220,   3.878e-4
1.222,   3.965e-4
1.224,   3.983e-4
1.226,   4.033e-4
1.228,   3.960e-4
1.230,   3.992e-4
1.232,   4.114e-4
1.234,   4.101e-4
1.236,   4.169e-4
1.238,   4.095e-4
1.240,   4.205e-4
1.242,   4.216e-4
1.244,   4.239e-4
1.246,   4.316e-4
1.248,   4.270e-4
1.250,   4.350e-4
1.252,   4.349e-4
1.254,   4.428e-4
1.256,   4.444e-4
1.258,   4.418e-4
1.260,   4.515e-4
1.262,   4.544e-4
1.264,   4.623e-4
1.266,   4.587e-4
1.268,   4.606e-4
1.270,   4.707e-4
1.272,   4.724e-4
1.274,   4.797e-4
1.276,   4.721e-4
1.278,   4.821e-4
1.280,   4.890e-4
1.282,   4.942e-4
1.284,   4.990e-4
1.286,   4.917e-4
1.288,   5.026e-4
1.290,   5.108e-4
1.292,   5.128e-4
1.294,   5.175e-4
1.296,   5.165e-4
1.298,   5.290e-4
1.300,   5.352e-4
1.302,   5.452e-4
1.304,   5.393e-4
1.306,   5.387e-4
1.308,   5.555e-4
1.310,   5.583e-4
1.312,   5.748e-4
1.314,   5.609e-4
1.316,   5.711e-4
1.318,   5.816e-4
1.320,   5.905e-4
1.322,   5.981e-4
1.324,   5.887e-4
1.326,   6.057e-4
1.328,   6.158e-4
1.330,   6.203e-4
1.332,   6.326e-4
1.334,   6.192e-4
1.336,   6.424e-4
1.338,   6.497e-4
1.340,   6.593e-4
1.342,   6.633e-4
1.344,   6.630e-4
1.346,   6.835e-4
1.348,   6.926e-4
1.350,   7.064e-4
1.352,   7.020e-4
1.354,   7.143e-4
1.356,   7.332e-4
1.358,   7.418e-4
1.360,   7.569e-4
1.362,   7.524e-4
1.364,   7.653e-4
1.366,   7.962e-4
1.368,   8.064e-4
1.370,   8.189e-4
1.372,   8.132e-4
1.374,   8.377e-4
1.376,   8.600e-4
1.378,   8.708e-4
1.380,   9.005e-4
1.382,   8.900e-4
1.384,   9.362e-4
1.386,   9.576e-4
1.388,   9.795e-4
1.390,   9.929e-4
1.392,   1.013e-3
1.394,   1.052e-3
1.396,   1.088e-3
1.398,   1.117e-3
1.400,   1.153e-3
1.402,   1.180e-3
1.404,   1.235e-3
1.406,   1.270e-3
1.408,   1.344e-3
1.410,   1.376e-3
1.412,   1.429e-3
1.414,   1.496e-3
1.416,   1.598e-3
1.418,   1.700e-3
1.420,   1.757e-3
1.422,   1.848e-3
1.424,   2.002e-3
1.426,   2.149e-3
1.428,   2.266e-3
1.430,   2.421e-3
1.432,   2.598e-3
1.434,   2.790e-3
1.436,   3.057e-3
1.438,   3.242e-3
1.440,   3.462e-3
1.442,   3.757e-3
1.444,   4.144e-3
1.446,   4.452e-3
1.448,   4.665e-3
1.450,   5.060e-3
1.452,   5.563e-3
1.454,   6.044e-3
1.456,   6.629e-3
1.458,   7.011e-3
1.460,   7.316e-3
1.462,   8.112e-3
1.464,   8.778e-3
1.466,   9.104e-3
1.468,   9.283e-3
1.470,   9.651e-3
1.472,   1.001e-2
1.474,   1.006e-2
1.476,   1.007e-2
1.478,   1.007e-2
1.480,   1.007e-2
1.482,   1.007e-2
1.484,   1.007e-2
1.486,   1.007e-2