Folder: DASH/Experimental Records and Raw Data/batch5/final400

Note: README.md
# DASH
This is the online repository that stores code, data and supplementary figures of the research work: <Leveraging Data Mining, Active Learning, and Domain Adaptation in a Multi-Stage, Machine Learning-Driven Approach for the Efficient Discovery of Advanced Acidic Oxygen Evolution Electrocatalysts> by Rui Ding et. al. (https://arxiv.org/abs/2407.04877)
![Workflow Schematic](https://github.com/ruiding-uchicago/D.A.S.H./blob/main/Online%20Repository%20Figures/D.A.S.H.%20Workflow.jpg)
## Code Description

Our code is written and uploaded on GitHub in Jupyter notebook file format, which is already very easy to conduct and get results. Our code does not include providing a new python library, but users could track how we train machine learning models in Jupyter ipynb files. Also, we have provided all original dataset CSV files to drive the active learning flow. Additionally, we have detailed the python version and package environment used for this work, focusing on machine learning-related packages.

## Environment
This project was trained using Python version 3.9.12. Below is the list of machine learning-related packages and their versions used in this project on the local machine we used equipped with 2080 Ti GPU, users could install anaconda (https://www.anaconda.com/download) and using pip install to install the packages below for setting environment to run in the Jupyter notebook (https://docs.anaconda.com/ae-notebooks/user-guide/basic-tasks/apps/jupyter/index.html):

absl-py 1.2.0
ase 3.22.1
catboost 1.0.6
cython 0.29.28
dask 2022.2.1
deep-forest 0.1.7
gensim 4.1.2
h5py 3.6.0
keras 2.9.0
Keras-Preprocessing 1.1.2
keras-tcn 3.5.0
lightgbm 3.3.2
matplotlib 3.4.3
numpy 1.23.5
pandas 1.4.2
pytorch-lightning 2.0.1
pymatgen 2023.8.10
scikit-learn 1.0.2
scipy 1.8.0
scikit-opt  0.6.6
scikit-optimize 0.9.0
seaborn 0.11.2
tensorboard                  2.10.1
tensorboard-data-server      0.6.1
tensorboard-plugin-wit       1.8.1
tensorflow-estimator         2.10.0
tensorflow-gpu               2.10.0
tensorflow-io-gcs-filesystem 0.31.0
torch 2.0.0
torchvision 0.15.1
xgboost 1.6.2

File: B5_BEST_400_#1_Full(#2)-190mV.txt
May 30, 2023   22:13:25
Linear Sweep Voltammetry
File: d:\current work\al_oer\electrochemical test data\batch 5\400\B5_BEST_400_#1_Full(#2)-190mV.txt
Data Source:  Experiment
Instrument Model:  CHI660E
Header:
Note:

Init E (V) = 0.899

Final E (V) = 1.495

Scan Rate (V/s) = 0.010
Sample Interval (V) = 0.001
Quiet Time (sec) = 2
Sensitivity (A/V) = 0.001
Comp R (ohm) = 5.0

Results:

Channel 1:

Potential/V, Current/A
0.899,   4.252e-4
0.901,   5.634e-4
0.903,   5.629e-4
0.905,   5.439e-4
0.907,   5.278e-4
0.909,   5.271e-4
0.911,   5.229e-4
0.913,   5.165e-4
0.915,   4.993e-4
0.917,   4.954e-4
0.919,   4.984e-4
0.921,   4.897e-4
0.923,   4.774e-4
0.925,   4.762e-4
0.927,   4.751e-4
0.929,   4.669e-4
0.931,   4.668e-4
0.933,   4.585e-4
0.935,   4.600e-4
0.937,   4.537e-4
0.939,   4.492e-4
0.941,   4.469e-4
0.943,   4.490e-4
0.945,   4.457e-4
0.947,   4.460e-4
0.949,   4.417e-4
0.951,   4.356e-4
0.953,   4.347e-4
0.955,   4.349e-4
0.957,   4.276e-4
0.959,   4.300e-4
0.961,   4.285e-4
0.963,   4.286e-4
0.965,   4.307e-4
0.967,   4.277e-4
0.969,   4.264e-4
0.971,   4.226e-4
0.973,   4.186e-4
0.975,   4.230e-4
0.977,   4.213e-4
0.979,   4.181e-4
0.981,   4.165e-4
0.983,   4.176e-4
0.985,   4.255e-4
0.987,   4.195e-4
0.989,   4.129e-4
0.991,   4.122e-4
0.993,   4.179e-4
0.995,   4.217e-4
0.997,   4.111e-4
0.999,   4.087e-4
1.001,   4.223e-4
1.003,   4.201e-4
1.005,   4.122e-4
1.007,   4.097e-4
1.009,   4.129e-4
1.011,   4.195e-4
1.013,   4.075e-4
1.015,   4.057e-4
1.017,   4.128e-4
1.019,   4.202e-4
1.021,   4.122e-4
1.023,   4.158e-4
1.025,   4.111e-4
1.027,   4.196e-4
1.029,   4.192e-4
1.031,   4.072e-4
1.033,   4.111e-4
1.035,   4.140e-4
1.037,   4.164e-4
1.039,   4.082e-4
1.041,   4.139e-4
1.043,   4.184e-4
1.045,   4.202e-4
1.047,   4.114e-4
1.049,   4.147e-4
1.051,   4.177e-4
1.053,   4.173e-4
1.055,   4.174e-4
1.057,   4.155e-4
1.059,   4.194e-4
1.061,   4.237e-4
1.063,   4.205e-4
1.065,   4.139e-4
1.067,   4.203e-4
1.069,   4.305e-4
1.071,   4.234e-4
1.073,   4.181e-4
1.075,   4.246e-4
1.077,   4.252e-4
1.079,   4.235e-4
1.081,   4.275e-4
1.083,   4.262e-4
1.085,   4.257e-4
1.087,   4.288e-4
1.089,   4.306e-4
1.091,   4.306e-4
1.093,   4.299e-4
1.095,   4.343e-4
1.097,   4.293e-4
1.099,   4.352e-4
1.101,   4.291e-4
1.103,   4.332e-4
1.105,   4.363e-4
1.107,   4.359e-4
1.109,   4.326e-4
1.111,   4.397e-4
1.113,   4.436e-4
1.115,   4.434e-4
1.117,   4.411e-4
1.119,   4.436e-4
1.121,   4.441e-4
1.123,   4.393e-4
1.125,   4.444e-4
1.127,   4.469e-4
1.129,   4.453e-4
1.131,   4.485e-4
1.133,   4.477e-4
1.135,   4.499e-4
1.137,   4.505e-4
1.139,   4.502e-4
1.141,   4.532e-4
1.143,   4.504e-4
1.145,   4.546e-4
1.147,   4.569e-4
1.149,   4.557e-4
1.151,   4.592e-4
1.153,   4.564e-4
1.155,   4.569e-4
1.157,   4.599e-4
1.159,   4.640e-4
1.161,   4.603e-4
1.163,   4.644e-4
1.165,   4.637e-4
1.167,   4.575e-4
1.169,   4.637e-4
1.171,   4.669e-4
1.173,   4.677e-4
1.175,   4.715e-4
1.177,   4.645e-4
1.179,   4.726e-4
1.181,   4.690e-4
1.183,   4.720e-4
1.185,   4.704e-4
1.187,   4.711e-4
1.189,   4.762e-4
1.191,   4.743e-4
1.193,   4.787e-4
1.195,   4.782e-4
1.197,   4.817e-4
1.199,   4.758e-4
1.201,   4.741e-4
1.203,   4.833e-4
1.205,   4.817e-4
1.207,   4.829e-4
1.209,   4.820e-4
1.211,   4.880e-4
1.213,   4.834e-4
1.215,   4.848e-4
1.217,   4.845e-4
1.219,   4.898e-4
1.221,   4.895e-4
1.223,   4.843e-4
1.225,   4.909e-4
1.227,   4.952e-4
1.229,   4.934e-4
1.231,   4.937e-4
1.233,   4.963e-4
1.235,   4.941e-4
1.237,   4.935e-4
1.239,   4.969e-4
1.241,   4.979e-4
1.243,   4.963e-4
1.245,   4.997e-4
1.247,   5.024e-4
1.249,   5.005e-4
1.251,   5.069e-4
1.253,   5.026e-4
1.255,   5.028e-4
1.257,   5.048e-4
1.259,   5.032e-4
1.261,   5.067e-4
1.263,   5.025e-4
1.265,   5.088e-4
1.267,   5.020e-4
1.269,   5.132e-4
1.271,   5.160e-4
1.273,   5.173e-4
1.275,   5.142e-4
1.277,   5.173e-4
1.279,   5.165e-4
1.281,   5.180e-4
1.283,   5.193e-4
1.285,   5.192e-4
1.287,   5.171e-4
1.289,   5.188e-4
1.291,   5.248e-4
1.293,   5.235e-4
1.295,   5.291e-4
1.297,   5.187e-4
1.299,   5.304e-4
1.301,   5.286e-4
1.303,   5.363e-4
1.305,   5.301e-4
1.307,   5.336e-4
1.309,   5.327e-4
1.311,   5.374e-4
1.313,   5.408e-4
1.315,   5.384e-4
1.317,   5.384e-4
1.319,   5.400e-4
1.321,   5.478e-4
1.323,   5.494e-4
1.325,   5.520e-4
1.327,   5.461e-4
1.329,   5.509e-4
1.331,   5.621e-4
1.333,   5.551e-4
1.335,   5.627e-4
1.337,   5.696e-4
1.339,   5.665e-4
1.341,   5.719e-4
1.343,   5.737e-4
1.345,   5.819e-4
1.347,   5.814e-4
1.349,   5.864e-4
1.351,   5.918e-4
1.353,   6.067e-4
1.355,   6.015e-4
1.357,   6.090e-4
1.359,   6.114e-4
1.361,   6.178e-4
1.363,   6.291e-4
1.365,   6.328e-4
1.367,   6.484e-4
1.369,   6.506e-4
1.371,   6.607e-4
1.373,   6.779e-4
1.375,   6.853e-4
1.377,   6.932e-4
1.379,   7.133e-4
1.381,   7.331e-4
1.383,   7.442e-4
1.385,   7.631e-4
1.387,   7.743e-4
1.389,   8.112e-4
1.391,   8.388e-4
1.393,   8.529e-4
1.395,   9.042e-4
1.397,   9.348e-4
1.399,   9.720e-4
1.401,   1.012e-3
1.403,   1.076e-3
1.405,   1.135e-3
1.407,   1.184e-3
1.409,   1.264e-3
1.411,   1.362e-3
1.413,   1.452e-3
1.415,   1.539e-3
1.417,   1.679e-3
1.419,   1.830e-3
1.421,   1.969e-3
1.423,   2.128e-3
1.425,   2.341e-3
1.427,   2.566e-3
1.429,   2.797e-3
1.431,   3.067e-3
1.433,   3.400e-3
1.435,   3.739e-3
1.437,   4.055e-3
1.439,   4.468e-3
1.441,   4.893e-3
1.443,   5.317e-3
1.445,   5.838e-3
1.447,   6.300e-3
1.449,   6.756e-3
1.451,   7.041e-3
1.453,   7.347e-3
1.455,   6.189e-3
1.457,   6.120e-3
1.459,   6.134e-3
1.461,   6.775e-3
1.463,   7.171e-3
1.465,   7.604e-3
1.467,   7.840e-3
1.469,   8.257e-3
1.471,   8.615e-3
1.473,   9.071e-3
1.475,   9.349e-3
1.477,   9.515e-3
1.479,   9.800e-3
1.481,   1.002e-2
1.483,   1.007e-2
1.485,   1.007e-2
1.487,   1.007e-2
1.489,   1.007e-2
1.491,   1.007e-2
1.493,   1.007e-2
1.495,   1.007e-2

File: B5_BEST_400_#1_Full(#3)-209mV.txt
May 30, 2023   15:36:48
Linear Sweep Voltammetry
File: d:\current work\al_oer\electrochemical test data\batch 5\400\B5_BEST_400_#1_Full(#3)-209mV.txt
Data Source:  Experiment
Instrument Model:  CHI660E
Header:
Note:

Init E (V) = 0.900

Final E (V) = 1.509

Scan Rate (V/s) = 0.010
Sample Interval (V) = 0.001
Quiet Time (sec) = 2
Sensitivity (A/V) = 0.001
Comp R (ohm) = 5.0

Results:

Channel 1:

Potential/V, Current/A
0.900,   2.996e-4
0.903,   3.255e-4
0.906,   3.000e-4
0.909,   2.814e-4
0.912,   2.641e-4
0.915,   2.510e-4
0.918,   2.410e-4
0.921,   2.324e-4
0.924,   2.235e-4
0.927,   2.161e-4
0.930,   2.113e-4
0.933,   2.053e-4
0.936,   2.005e-4
0.939,   1.973e-4
0.942,   1.921e-4
0.945,   1.910e-4
0.948,   1.893e-4
0.951,   1.849e-4
0.954,   1.834e-4
0.957,   1.785e-4
0.960,   1.778e-4
0.963,   1.762e-4
0.966,   1.746e-4
0.969,   1.728e-4
0.972,   1.725e-4
0.975,   1.709e-4
0.978,   1.695e-4
0.981,   1.676e-4
0.984,   1.664e-4
0.987,   1.658e-4
0.990,   1.647e-4
0.993,   1.644e-4
0.996,   1.641e-4
0.999,   1.638e-4
1.002,   1.616e-4
1.005,   1.623e-4
1.008,   1.609e-4
1.011,   1.608e-4
1.014,   1.598e-4
1.017,   1.597e-4
1.020,   1.604e-4
1.023,   1.592e-4
1.026,   1.589e-4
1.029,   1.585e-4
1.032,   1.595e-4
1.035,   1.573e-4
1.038,   1.592e-4
1.041,   1.576e-4
1.044,   1.591e-4
1.047,   1.584e-4
1.050,   1.583e-4
1.053,   1.586e-4
1.056,   1.584e-4
1.059,   1.576e-4
1.062,   1.583e-4
1.065,   1.605e-4
1.068,   1.611e-4
1.071,   1.600e-4
1.074,   1.607e-4
1.077,   1.591e-4
1.080,   1.599e-4
1.083,   1.611e-4
1.086,   1.615e-4
1.089,   1.626e-4
1.092,   1.629e-4
1.095,   1.637e-4
1.098,   1.660e-4
1.101,   1.651e-4
1.104,   1.649e-4
1.107,   1.668e-4
1.110,   1.692e-4
1.113,   1.686e-4
1.116,   1.694e-4
1.119,   1.706e-4
1.122,   1.708e-4
1.125,   1.695e-4
1.128,   1.721e-4
1.131,   1.732e-4
1.134,   1.749e-4
1.137,   1.753e-4
1.140,   1.762e-4
1.143,   1.782e-4
1.146,   1.785e-4
1.149,   1.789e-4
1.152,   1.801e-4
1.155,   1.806e-4
1.158,   1.822e-4
1.161,   1.837e-4
1.164,   1.858e-4
1.167,   1.850e-4
1.170,   1.863e-4
1.173,   1.887e-4
1.176,   1.895e-4
1.179,   1.924e-4
1.182,   1.927e-4
1.185,   1.943e-4
1.188,   1.959e-4
1.191,   1.970e-4
1.194,   1.984e-4
1.197,   2.018e-4
1.200,   2.012e-4
1.203,   2.031e-4
1.206,   2.032e-4
1.209,   2.059e-4
1.212,   2.061e-4
1.215,   2.094e-4
1.218,   2.110e-4
1.221,   2.124e-4
1.224,   2.132e-4
1.227,   2.161e-4
1.230,   2.175e-4
1.233,   2.189e-4
1.236,   2.207e-4
1.239,   2.244e-4
1.242,   2.234e-4
1.245,   2.232e-4
1.248,   2.277e-4
1.251,   2.282e-4
1.254,   2.312e-4
1.257,   2.312e-4
1.260,   2.324e-4
1.263,   2.362e-4
1.266,   2.377e-4
1.269,   2.394e-4
1.272,   2.400e-4
1.275,   2.430e-4
1.278,   2.461e-4
1.281,   2.453e-4
1.284,   2.492e-4
1.287,   2.504e-4
1.290,   2.521e-4
1.293,   2.561e-4
1.296,   2.561e-4
1.299,   2.609e-4
1.302,   2.596e-4
1.305,   2.632e-4
1.308,   2.647e-4
1.311,   2.673e-4
1.314,   2.682e-4
1.317,   2.731e-4
1.320,   2.748e-4
1.323,   2.778e-4
1.326,   2.832e-4
1.329,   2.847e-4
1.332,   2.889e-4
1.335,   2.925e-4
1.338,   2.970e-4
1.341,   3.005e-4
1.344,   3.047e-4
1.347,   3.088e-4
1.350,   3.146e-4
1.353,   3.208e-4
1.356,   3.232e-4
1.359,   3.316e-4
1.362,   3.362e-4
1.365,   3.420e-4
1.368,   3.492e-4
1.371,   3.590e-4
1.374,   3.678e-4
1.377,   3.776e-4
1.380,   3.898e-4
1.383,   4.059e-4
1.386,   4.182e-4
1.389,   4.361e-4
1.392,   4.574e-4
1.395,   4.809e-4
1.398,   5.065e-4
1.401,   5.370e-4
1.404,   5.775e-4
1.407,   6.204e-4
1.410,   6.743e-4
1.413,   7.383e-4
1.416,   8.118e-4
1.419,   9.000e-4
1.422,   9.963e-4
1.425,   1.113e-3
1.428,   1.257e-3
1.431,   1.405e-3
1.434,   1.585e-3
1.437,   1.781e-3
1.440,   1.989e-3
1.443,   2.214e-3
1.446,   2.458e-3
1.449,   2.733e-3
1.452,   3.029e-3
1.455,   3.331e-3
1.458,   3.642e-3
1.461,   3.989e-3
1.464,   4.323e-3
1.467,   4.690e-3
1.470,   5.061e-3
1.473,   5.449e-3
1.476,   5.841e-3
1.479,   6.248e-3
1.482,   6.689e-3
1.485,   7.092e-3
1.488,   7.526e-3
1.491,   7.970e-3
1.494,   8.416e-3
1.497,   8.790e-3
1.500,   9.117e-3
1.503,   9.540e-3
1.506,   9.905e-3
1.509,   1.007e-2

File: B5_BEST_400_#1_Full(#4)-188mV.txt
May 31, 2023   14:27:31
Linear Sweep Voltammetry
File: d:\current work\al_oer\electrochemical test data\batch 5\400\B5_BEST_400_#1_Full(#4)-188mV.txt
Data Source:  Experiment
Instrument Model:  CHI660E
Header:
Note:

Init E (V) = 0.899

Final E (V) = 1.459

Scan Rate (V/s) = 0.010
Sample Interval (V) = 0.001
Quiet Time (sec) = 2
Sensitivity (A/V) = 0.001
Comp R (ohm) = 5.9

Results:

Channel 1:

Potential/V, Current/A
0.899,   4.922e-4
0.901,   5.140e-4
0.903,   4.870e-4
0.905,   4.619e-4
0.907,   4.394e-4
0.909,   4.197e-4
0.911,   4.075e-4
0.913,   3.933e-4
0.915,   3.864e-4
0.917,   3.752e-4
0.919,   3.682e-4
0.921,   3.604e-4
0.923,   3.526e-4
0.925,   3.446e-4
0.927,   3.391e-4
0.929,   3.378e-4
0.931,   3.324e-4
0.933,   3.272e-4
0.935,   3.182e-4
0.937,   3.241e-4
0.939,   3.159e-4
0.941,   3.143e-4
0.943,   3.106e-4
0.945,   3.079e-4
0.947,   3.022e-4
0.949,   3.028e-4
0.951,   2.994e-4
0.953,   2.984e-4
0.955,   2.963e-4
0.957,   2.936e-4
0.959,   2.911e-4
0.961,   2.921e-4
0.963,   2.894e-4
0.965,   2.892e-4
0.967,   2.861e-4
0.969,   2.849e-4
0.971,   2.818e-4
0.973,   2.831e-4
0.975,   2.818e-4
0.977,   2.800e-4
0.979,   2.795e-4
0.981,   2.793e-4
0.983,   2.776e-4
0.985,   2.780e-4
0.987,   2.768e-4
0.989,   2.727e-4
0.991,   2.741e-4
0.993,   2.769e-4
0.995,   2.753e-4
0.997,   2.755e-4
0.999,   2.721e-4
1.001,   2.718e-4
1.003,   2.723e-4
1.005,   2.731e-4
1.007,   2.715e-4
1.009,   2.741e-4
1.011,   2.707e-4
1.013,   2.713e-4
1.015,   2.701e-4
1.017,   2.680e-4
1.019,   2.713e-4
1.021,   2.718e-4
1.023,   2.694e-4
1.025,   2.666e-4
1.027,   2.661e-4
1.029,   2.713e-4
1.031,   2.692e-4
1.033,   2.683e-4
1.035,   2.681e-4
1.037,   2.695e-4
1.039,   2.742e-4
1.041,   2.634e-4
1.043,   2.674e-4
1.045,   2.689e-4
1.047,   2.696e-4
1.049,   2.714e-4
1.051,   2.698e-4
1.053,   2.727e-4
1.055,   2.734e-4
1.057,   2.719e-4
1.059,   2.722e-4
1.061,   2.699e-4
1.063,   2.694e-4
1.065,   2.758e-4
1.067,   2.685e-4
1.069,   2.718e-4
1.071,   2.724e-4
1.073,   2.762e-4
1.075,   2.766e-4
1.077,   2.770e-4
1.079,   2.729e-4
1.081,   2.762e-4
1.083,   2.743e-4
1.085,   2.740e-4
1.087,   2.725e-4
1.089,   2.729e-4
1.091,   2.766e-4
1.093,   2.784e-4
1.095,   2.794e-4
1.097,   2.783e-4
1.099,   2.816e-4
1.101,   2.804e-4
1.103,   2.807e-4
1.105,   2.826e-4
1.107,   2.818e-4
1.109,   2.805e-4
1.111,   2.828e-4
1.113,   2.828e-4
1.115,   2.807e-4
1.117,   2.851e-4
1.119,   2.854e-4
1.121,   2.847e-4
1.123,   2.848e-4
1.125,   2.876e-4
1.127,   2.841e-4
1.129,   2.876e-4
1.131,   2.897e-4
1.133,   2.898e-4
1.135,   2.875e-4
1.137,   2.893e-4
1.139,   2.899e-4
1.141,   2.920e-4
1.143,   2.937e-4
1.145,   2.954e-4
1.147,   2.963e-4
1.149,   2.980e-4
1.151,   2.956e-4
1.153,   2.991e-4
1.155,   2.987e-4
1.157,   2.975e-4
1.159,   2.963e-4
1.161,   3.004e-4
1.163,   3.005e-4
1.165,   3.006e-4
1.167,   3.036e-4
1.169,   3.018e-4
1.171,   3.025e-4
1.173,   3.041e-4
1.175,   3.078e-4
1.177,   3.057e-4
1.179,   3.054e-4
1.181,   3.078e-4
1.183,   3.025e-4
1.185,   3.066e-4
1.187,   3.100e-4
1.189,   3.095e-4
1.191,   3.082e-4
1.193,   3.063e-4
1.195,   3.163e-4
1.197,   3.117e-4
1.199,   3.135e-4
1.201,   3.162e-4
1.203,   3.203e-4
1.205,   3.201e-4
1.207,   3.150e-4
1.209,   3.171e-4
1.211,   3.178e-4
1.213,   3.186e-4
1.215,   3.204e-4
1.217,   3.220e-4
1.219,   3.171e-4
1.221,   3.221e-4
1.223,   3.246e-4
1.225,   3.245e-4
1.227,   3.247e-4
1.229,   3.226e-4
1.231,   3.255e-4
1.233,   3.347e-4
1.235,   3.293e-4
1.237,   3.300e-4
1.239,   3.295e-4
1.241,   3.278e-4
1.243,   3.360e-4
1.245,   3.338e-4
1.247,   3.332e-4
1.249,   3.377e-4
1.251,   3.366e-4
1.253,   3.383e-4
1.255,   3.372e-4
1.257,   3.416e-4
1.259,   3.422e-4
1.261,   3.406e-4
1.263,   3.402e-4
1.265,   3.486e-4
1.267,   3.403e-4
1.269,   3.468e-4
1.271,   3.434e-4
1.273,   3.493e-4
1.275,   3.491e-4
1.277,   3.469e-4
1.279,   3.529e-4
1.281,   3.571e-4
1.283,   3.528e-4
1.285,   3.573e-4
1.287,   3.584e-4
1.289,   3.532e-4
1.291,   3.592e-4
1.293,   3.642e-4
1.295,   3.606e-4
1.297,   3.694e-4
1.299,   3.634e-4
1.301,   3.701e-4
1.303,   3.731e-4
1.305,   3.718e-4
1.307,   3.746e-4
1.309,   3.741e-4
1.311,   3.759e-4
1.313,   3.851e-4
1.315,   3.842e-4
1.317,   3.828e-4
1.319,   3.841e-4
1.321,   3.889e-4
1.323,   3.937e-4
1.325,   3.923e-4
1.327,   3.980e-4
1.329,   4.002e-4
1.331,   4.044e-4
1.333,   4.056e-4
1.335,   4.140e-4
1.337,   4.120e-4
1.339,   4.182e-4
1.341,   4.195e-4
1.343,   4.301e-4
1.345,   4.324e-4
1.347,   4.338e-4
1.349,   4.382e-4
1.351,   4.428e-4
1.353,   4.546e-4
1.355,   4.592e-4
1.357,   4.652e-4
1.359,   4.684e-4
1.361,   4.770e-4
1.363,   4.894e-4
1.365,   4.972e-4
1.367,   5.014e-4
1.369,   5.170e-4
1.371,   5.278e-4
1.373,   5.384e-4
1.375,   5.447e-4
1.377,   5.697e-4
1.379,   5.898e-4
1.381,   5.966e-4
1.383,   6.239e-4
1.385,   6.472e-4
1.387,   6.717e-4
1.389,   7.058e-4
1.391,   7.352e-4
1.393,   7.701e-4
1.395,   8.082e-4
1.397,   8.499e-4
1.399,   9.044e-4
1.401,   9.666e-4
1.403,   1.025e-3
1.405,   1.093e-3
1.407,   1.179e-3
1.409,   1.286e-3
1.411,   1.397e-3
1.413,   1.514e-3
1.415,   1.651e-3
1.417,   1.839e-3
1.419,   1.991e-3
1.421,   2.210e-3
1.423,   2.445e-3
1.425,   2.708e-3
1.427,   3.017e-3
1.429,   3.340e-3
1.431,   3.740e-3
1.433,   4.219e-3
1.435,   4.667e-3
1.437,   5.089e-3
1.439,   5.630e-3
1.441,   6.189e-3
1.443,   6.741e-3
1.445,   7.327e-3
1.447,   8.033e-3
1.449,   8.608e-3
1.451,   9.007e-3
1.453,   9.326e-3
1.455,   9.578e-3
1.457,   9.857e-3
1.459,   1.003e-2

File: B5_BEST_400_#1_Full(#7)-267mV.txt
May 31, 2023   16:21:23
Linear Sweep Voltammetry
File: d:\current work\al_oer\electrochemical test data\batch 5\400\B5_BEST_400_#1_Full(#7)-267mV.txt
Data Source:  Experiment
Instrument Model:  CHI660E
Header:
Note:

Init E (V) = 0.902

Final E (V) = 1.580

Scan Rate (V/s) = 0.010
Sample Interval (V) = 0.001
Quiet Time (sec) = 2
Sensitivity (A/V) = 0.001
Comp R (ohm) = 7.1

Results:

Channel 1:

Potential/V, Current/A
0.902,   7.651e-5
0.905,   8.115e-5
0.908,   8.016e-5
0.911,   7.820e-5
0.914,   7.759e-5
0.917,   7.588e-5
0.920,   7.493e-5
0.923,   7.356e-5
0.926,   7.219e-5
0.929,   7.156e-5
0.932,   7.012e-5
0.935,   6.962e-5
0.938,   6.828e-5
0.941,   6.771e-5
0.944,   6.698e-5
0.947,   6.598e-5
0.950,   6.589e-5
0.953,   6.481e-5
0.956,   6.450e-5
0.959,   6.372e-5
0.962,   6.305e-5
0.965,   6.280e-5
0.968,   6.195e-5
0.971,   6.193e-5
0.974,   6.141e-5
0.977,   6.096e-5
0.980,   6.050e-5
0.983,   6.010e-5
0.986,   5.993e-5
0.989,   5.946e-5
0.992,   5.926e-5
0.995,   5.863e-5
0.998,   5.826e-5
1.001,   5.865e-5
1.004,   5.782e-5
1.007,   5.807e-5
1.010,   5.748e-5
1.013,   5.742e-5
1.016,   5.713e-5
1.019,   5.688e-5
1.022,   5.710e-5
1.025,   5.660e-5
1.028,   5.677e-5
1.031,   5.624e-5
1.034,   5.632e-5
1.037,   5.641e-5
1.040,   5.570e-5
1.043,   5.634e-5
1.046,   5.597e-5
1.049,   5.620e-5
1.052,   5.591e-5
1.055,   5.601e-5
1.058,   5.637e-5
1.061,   5.571e-5
1.064,   5.623e-5
1.067,   5.600e-5
1.070,   5.580e-5
1.073,   5.607e-5
1.076,   5.586e-5
1.079,   5.642e-5
1.082,   5.601e-5
1.085,   5.663e-5
1.088,   5.607e-5
1.091,   5.628e-5
1.094,   5.676e-5
1.097,   5.655e-5
1.100,   5.704e-5
1.103,   5.680e-5
1.106,   5.716e-5
1.109,   5.733e-5
1.112,   5.715e-5
1.115,   5.776e-5
1.118,   5.760e-5
1.121,   5.807e-5
1.124,   5.792e-5
1.127,   5.817e-5
1.130,   5.856e-5
1.133,   5.842e-5
1.136,   5.897e-5
1.139,   5.900e-5
1.142,   5.942e-5
1.145,   5.948e-5
1.148,   5.953e-5
1.151,   5.994e-5
1.154,   6.009e-5
1.157,   6.066e-5
1.160,   6.052e-5
1.163,   6.100e-5
1.166,   6.119e-5
1.169,   6.121e-5
1.172,   6.177e-5
1.175,   6.189e-5
1.178,   6.200e-5
1.181,   6.197e-5
1.184,   6.220e-5
1.187,   6.260e-5
1.190,   6.267e-5
1.193,   6.342e-5
1.196,   6.295e-5
1.199,   6.328e-5
1.202,   6.348e-5
1.205,   6.337e-5
1.208,   6.402e-5
1.211,   6.381e-5
1.214,   6.407e-5
1.217,   6.436e-5
1.220,   6.428e-5
1.223,   6.525e-5
1.226,   6.447e-5
1.229,   6.519e-5
1.232,   6.507e-5
1.235,   6.543e-5
1.238,   6.608e-5
1.241,   6.554e-5
1.244,   6.613e-5
1.247,   6.604e-5
1.250,   6.654e-5
1.253,   6.647e-5
1.256,   6.642e-5
1.259,   6.704e-5
1.262,   6.701e-5
1.265,   6.778e-5
1.268,   6.731e-5
1.271,   6.728e-5
1.274,   6.775e-5
1.277,   6.753e-5
1.280,   6.820e-5
1.283,   6.825e-5
1.286,   6.882e-5
1.289,   6.887e-5
1.292,   6.898e-5
1.295,   6.962e-5
1.298,   6.939e-5
1.301,   7.045e-5
1.304,   6.998e-5
1.307,   7.068e-5
1.310,   7.090e-5
1.313,   7.085e-5
1.316,   7.196e-5
1.319,   7.137e-5
1.322,   7.239e-5
1.325,   7.202e-5
1.328,   7.267e-5
1.331,   7.335e-5
1.334,   7.350e-5
1.337,   7.463e-5
1.340,   7.497e-5
1.343,   7.545e-5
1.346,   7.592e-5
1.349,   7.552e-5
1.352,   7.759e-5
1.355,   7.701e-5
1.358,   7.851e-5
1.361,   7.868e-5
1.364,   7.944e-5
1.367,   8.081e-5
1.370,   8.071e-5
1.373,   8.239e-5
1.376,   8.258e-5
1.379,   8.414e-5
1.382,   8.494e-5
1.385,   8.598e-5
1.388,   8.836e-5
1.391,   8.892e-5
1.394,   9.126e-5
1.397,   9.238e-5
1.400,   9.468e-5
1.403,   9.700e-5
1.406,   9.912e-5
1.409,   1.034e-4
1.412,   1.057e-4
1.415,   1.103e-4
1.418,   1.135e-4
1.421,   1.200e-4
1.424,   1.272e-4
1.427,   1.341e-4
1.430,   1.434e-4
1.433,   1.531e-4
1.436,   1.671e-4
1.439,   1.814e-4
1.442,   1.982e-4
1.445,   2.212e-4
1.448,   2.438e-4
1.451,   2.741e-4
1.454,   3.058e-4
1.457,   3.490e-4
1.460,   3.959e-4
1.463,   4.475e-4
1.466,   5.164e-4
1.469,   5.829e-4
1.472,   6.742e-4
1.475,   7.590e-4
1.478,   8.700e-4
1.481,   1.001e-3
1.484,   1.120e-3
1.487,   1.291e-3
1.490,   1.437e-3
1.493,   1.629e-3
1.496,   1.816e-3
1.499,   2.005e-3
1.502,   2.263e-3
1.505,   2.469e-3
1.508,   2.787e-3
1.511,   3.037e-3
1.514,   3.382e-3
1.517,   3.728e-3
1.520,   4.072e-3
1.523,   4.509e-3
1.526,   4.767e-3
1.529,   5.264e-3
1.532,   5.642e-3
1.535,   6.047e-3
1.538,   6.440e-3
1.541,   6.737e-3
1.544,   7.290e-3
1.547,   7.611e-3
1.550,   8.104e-3
1.553,   8.401e-3
1.556,   8.726e-3
1.559,   9.226e-3
1.562,   9.235e-3
1.565,   9.619e-3
1.568,   9.935e-3
1.571,   9.967e-3
1.574,   1.005e-2
1.577,   1.007e-2
1.580,   1.007e-2