Folder: DASH/Experimental Records and Raw Data/batch5/final500

Note: README.md
# DASH
This is the online repository that stores code, data and supplementary figures of the research work: <Leveraging Data Mining, Active Learning, and Domain Adaptation in a Multi-Stage, Machine Learning-Driven Approach for the Efficient Discovery of Advanced Acidic Oxygen Evolution Electrocatalysts> by Rui Ding et. al. (https://arxiv.org/abs/2407.04877)
![Workflow Schematic](https://github.com/ruiding-uchicago/D.A.S.H./blob/main/Online%20Repository%20Figures/D.A.S.H.%20Workflow.jpg)
## Code Description

Our code is written and uploaded on GitHub in Jupyter notebook file format, which is already very easy to conduct and get results. Our code does not include providing a new python library, but users could track how we train machine learning models in Jupyter ipynb files. Also, we have provided all original dataset CSV files to drive the active learning flow. Additionally, we have detailed the python version and package environment used for this work, focusing on machine learning-related packages.

## Environment
This project was trained using Python version 3.9.12. Below is the list of machine learning-related packages and their versions used in this project on the local machine we used equipped with 2080 Ti GPU, users could install anaconda (https://www.anaconda.com/download) and using pip install to install the packages below for setting environment to run in the Jupyter notebook (https://docs.anaconda.com/ae-notebooks/user-guide/basic-tasks/apps/jupyter/index.html):

absl-py 1.2.0
ase 3.22.1
catboost 1.0.6
cython 0.29.28
dask 2022.2.1
deep-forest 0.1.7
gensim 4.1.2
h5py 3.6.0
keras 2.9.0
Keras-Preprocessing 1.1.2
keras-tcn 3.5.0
lightgbm 3.3.2
matplotlib 3.4.3
numpy 1.23.5
pandas 1.4.2
pytorch-lightning 2.0.1
pymatgen 2023.8.10
scikit-learn 1.0.2
scipy 1.8.0
scikit-opt  0.6.6
scikit-optimize 0.9.0
seaborn 0.11.2
tensorboard                  2.10.1
tensorboard-data-server      0.6.1
tensorboard-plugin-wit       1.8.1
tensorflow-estimator         2.10.0
tensorflow-gpu               2.10.0
tensorflow-io-gcs-filesystem 0.31.0
torch 2.0.0
torchvision 0.15.1
xgboost 1.6.2

File: B5_BEST_500_#1_Full(#1)-258mV.txt
June 8, 2023   20:57:59
Linear Sweep Voltammetry
File: d:\current work\al_oer\electrochemical test data\batch 5\500\B5_BEST_500_#1_Full(#1)-258mV.txt
Data Source:  Experiment
Instrument Model:  CHI660E
Header:
Note:

Init E (V) = 0.905

Final E (V) = 1.551

Scan Rate (V/s) = 0.010
Sample Interval (V) = 0.001
Quiet Time (sec) = 2
Sensitivity (A/V) = 0.001
Comp R (ohm) = 4.2

Results:

Channel 1:

Potential/V, Current/A
0.905,   1.801e-4
0.908,   2.088e-4
0.911,   2.074e-4
0.914,   1.999e-4
0.917,   1.949e-4
0.920,   1.924e-4
0.923,   1.939e-4
0.926,   1.891e-4
0.929,   1.845e-4
0.932,   1.814e-4
0.935,   1.846e-4
0.938,   1.786e-4
0.941,   1.753e-4
0.944,   1.722e-4
0.947,   1.738e-4
0.950,   1.706e-4
0.953,   1.690e-4
0.956,   1.659e-4
0.959,   1.682e-4
0.962,   1.654e-4
0.965,   1.635e-4
0.968,   1.594e-4
0.971,   1.606e-4
0.974,   1.603e-4
0.977,   1.566e-4
0.980,   1.583e-4
0.983,   1.554e-4
0.986,   1.562e-4
0.989,   1.524e-4
0.992,   1.540e-4
0.995,   1.507e-4
0.998,   1.524e-4
1.001,   1.484e-4
1.004,   1.506e-4
1.007,   1.496e-4
1.010,   1.496e-4
1.013,   1.456e-4
1.016,   1.462e-4
1.019,   1.467e-4
1.022,   1.463e-4
1.025,   1.450e-4
1.028,   1.438e-4
1.031,   1.448e-4
1.034,   1.419e-4
1.037,   1.447e-4
1.040,   1.413e-4
1.043,   1.440e-4
1.046,   1.400e-4
1.049,   1.426e-4
1.052,   1.404e-4
1.055,   1.426e-4
1.058,   1.379e-4
1.061,   1.416e-4
1.064,   1.397e-4
1.067,   1.405e-4
1.070,   1.370e-4
1.073,   1.406e-4
1.076,   1.403e-4
1.079,   1.434e-4
1.082,   1.367e-4
1.085,   1.391e-4
1.088,   1.399e-4
1.091,   1.417e-4
1.094,   1.379e-4
1.097,   1.388e-4
1.100,   1.426e-4
1.103,   1.401e-4
1.106,   1.388e-4
1.109,   1.382e-4
1.112,   1.428e-4
1.115,   1.419e-4
1.118,   1.407e-4
1.121,   1.393e-4
1.124,   1.436e-4
1.127,   1.432e-4
1.130,   1.432e-4
1.133,   1.398e-4
1.136,   1.444e-4
1.139,   1.450e-4
1.142,   1.456e-4
1.145,   1.423e-4
1.148,   1.456e-4
1.151,   1.483e-4
1.154,   1.481e-4
1.157,   1.455e-4
1.160,   1.466e-4
1.163,   1.519e-4
1.166,   1.501e-4
1.169,   1.503e-4
1.172,   1.494e-4
1.175,   1.543e-4
1.178,   1.535e-4
1.181,   1.517e-4
1.184,   1.514e-4
1.187,   1.565e-4
1.190,   1.563e-4
1.193,   1.586e-4
1.196,   1.535e-4
1.199,   1.598e-4
1.202,   1.619e-4
1.205,   1.643e-4
1.208,   1.584e-4
1.211,   1.619e-4
1.214,   1.679e-4
1.217,   1.704e-4
1.220,   1.646e-4
1.223,   1.670e-4
1.226,   1.724e-4
1.229,   1.726e-4
1.232,   1.696e-4
1.235,   1.702e-4
1.238,   1.773e-4
1.241,   1.783e-4
1.244,   1.767e-4
1.247,   1.781e-4
1.250,   1.815e-4
1.253,   1.830e-4
1.256,   1.825e-4
1.259,   1.802e-4
1.262,   1.835e-4
1.265,   1.891e-4
1.268,   1.894e-4
1.271,   1.852e-4
1.274,   1.869e-4
1.277,   1.936e-4
1.280,   1.948e-4
1.283,   1.882e-4
1.286,   1.931e-4
1.289,   1.996e-4
1.292,   2.014e-4
1.295,   1.951e-4
1.298,   1.951e-4
1.301,   1.996e-4
1.304,   2.041e-4
1.307,   2.051e-4
1.310,   1.992e-4
1.313,   2.046e-4
1.316,   2.073e-4
1.319,   2.093e-4
1.322,   2.014e-4
1.325,   2.076e-4
1.328,   2.078e-4
1.331,   2.129e-4
1.334,   2.055e-4
1.337,   2.108e-4
1.340,   2.145e-4
1.343,   2.166e-4
1.346,   2.136e-4
1.349,   2.154e-4
1.352,   2.175e-4
1.355,   2.220e-4
1.358,   2.200e-4
1.361,   2.154e-4
1.364,   2.221e-4
1.367,   2.247e-4
1.370,   2.245e-4
1.373,   2.182e-4
1.376,   2.254e-4
1.379,   2.320e-4
1.382,   2.313e-4
1.385,   2.256e-4
1.388,   2.327e-4
1.391,   2.397e-4
1.394,   2.397e-4
1.397,   2.372e-4
1.400,   2.412e-4
1.403,   2.549e-4
1.406,   2.501e-4
1.409,   2.507e-4
1.412,   2.517e-4
1.415,   2.710e-4
1.418,   2.658e-4
1.421,   2.693e-4
1.424,   2.692e-4
1.427,   2.916e-4
1.430,   3.048e-4
1.433,   3.034e-4
1.436,   3.098e-4
1.439,   3.389e-4
1.442,   3.642e-4
1.445,   3.652e-4
1.448,   3.813e-4
1.451,   4.256e-4
1.454,   4.771e-4
1.457,   4.905e-4
1.460,   5.432e-4
1.463,   6.111e-4
1.466,   7.254e-4
1.469,   7.672e-4
1.472,   8.532e-4
1.475,   9.842e-4
1.478,   1.210e-3
1.481,   1.317e-3
1.484,   1.476e-3
1.487,   1.703e-3
1.490,   2.096e-3
1.493,   2.330e-3
1.496,   2.561e-3
1.499,   2.970e-3
1.502,   3.628e-3
1.505,   4.108e-3
1.508,   4.362e-3
1.511,   4.947e-3
1.514,   5.758e-3
1.517,   6.380e-3
1.520,   6.687e-3
1.523,   7.444e-3
1.526,   8.399e-3
1.529,   9.009e-3
1.532,   9.319e-3
1.535,   9.906e-3
1.538,   1.005e-2
1.541,   1.007e-2
1.544,   1.007e-2
1.547,   1.007e-2
1.550,   1.007e-2
1.551,   1.007e-2

File: B5_BEST_500_#1_Full(#3)-259mV.txt
June 8, 2023   20:42:16
Linear Sweep Voltammetry
File: d:\current work\al_oer\electrochemical test data\batch 5\500\B5_BEST_500_#1_Full(#3)-259mV.txt
Data Source:  Experiment
Instrument Model:  CHI660E
Header:
Note:

Init E (V) = 0.891

Final E (V) = 1.555

Scan Rate (V/s) = 0.010
Sample Interval (V) = 0.001
Quiet Time (sec) = 2
Sensitivity (A/V) = 0.001
Comp R (ohm) = 4.2
UC R (ohm) = 1.0

Results:

Channel 1:
Ep = 1.541V
ip = 4.814e-3A
Ah = 7.700e-3C

Potential/V, Current/A
0.891,   3.714e-5
0.894,   3.851e-5
0.897,   3.790e-5
0.900,   3.748e-5
0.903,   3.694e-5
0.906,   3.636e-5
0.909,   3.588e-5
0.912,   3.551e-5
0.915,   3.506e-5
0.918,   3.459e-5
0.921,   3.424e-5
0.924,   3.389e-5
0.927,   3.348e-5
0.930,   3.311e-5
0.933,   3.287e-5
0.936,   3.262e-5
0.939,   3.230e-5
0.942,   3.209e-5
0.945,   3.184e-5
0.948,   3.166e-5
0.951,   3.127e-5
0.954,   3.116e-5
0.957,   3.103e-5
0.960,   3.078e-5
0.963,   3.055e-5
0.966,   3.049e-5
0.969,   3.036e-5
0.972,   3.014e-5
0.975,   3.004e-5
0.978,   2.998e-5
0.981,   2.981e-5
0.984,   2.962e-5
0.987,   2.961e-5
0.990,   2.958e-5
0.993,   2.940e-5
0.996,   2.936e-5
0.999,   2.929e-5
1.002,   2.922e-5
1.005,   2.912e-5
1.008,   2.912e-5
1.011,   2.920e-5
1.014,   2.900e-5
1.017,   2.903e-5
1.020,   2.902e-5
1.023,   2.905e-5
1.026,   2.896e-5
1.029,   2.907e-5
1.032,   2.913e-5
1.035,   2.906e-5
1.038,   2.904e-5
1.041,   2.910e-5
1.044,   2.914e-5
1.047,   2.912e-5
1.050,   2.909e-5
1.053,   2.922e-5
1.056,   2.928e-5
1.059,   2.930e-5
1.062,   2.942e-5
1.065,   2.951e-5
1.068,   2.954e-5
1.071,   2.964e-5
1.074,   2.970e-5
1.077,   2.984e-5
1.080,   2.995e-5
1.083,   2.998e-5
1.086,   3.020e-5
1.089,   3.031e-5
1.092,   3.039e-5
1.095,   3.052e-5
1.098,   3.075e-5
1.101,   3.079e-5
1.104,   3.098e-5
1.107,   3.123e-5
1.110,   3.136e-5
1.113,   3.148e-5
1.116,   3.167e-5
1.119,   3.190e-5
1.122,   3.205e-5
1.125,   3.223e-5
1.128,   3.249e-5
1.131,   3.275e-5
1.134,   3.290e-5
1.137,   3.313e-5
1.140,   3.340e-5
1.143,   3.362e-5
1.146,   3.380e-5
1.149,   3.409e-5
1.152,   3.431e-5
1.155,   3.458e-5
1.158,   3.487e-5
1.161,   3.516e-5
1.164,   3.547e-5
1.167,   3.563e-5
1.170,   3.601e-5
1.173,   3.633e-5
1.176,   3.660e-5
1.179,   3.689e-5
1.182,   3.729e-5
1.185,   3.769e-5
1.188,   3.792e-5
1.191,   3.833e-5
1.194,   3.867e-5
1.197,   3.907e-5
1.200,   3.933e-5
1.203,   3.973e-5
1.206,   4.023e-5
1.209,   4.048e-5
1.212,   4.095e-5
1.215,   4.147e-5
1.218,   4.192e-5
1.221,   4.221e-5
1.224,   4.275e-5
1.227,   4.327e-5
1.230,   4.370e-5
1.233,   4.419e-5
1.236,   4.471e-5
1.239,   4.531e-5
1.242,   4.573e-5
1.245,   4.633e-5
1.248,   4.692e-5
1.251,   4.749e-5
1.254,   4.806e-5
1.257,   4.867e-5
1.260,   4.934e-5
1.263,   4.977e-5
1.266,   5.055e-5
1.269,   5.127e-5
1.272,   5.203e-5
1.275,   5.268e-5
1.278,   5.332e-5
1.281,   5.416e-5
1.284,   5.482e-5
1.287,   5.552e-5
1.290,   5.638e-5
1.293,   5.724e-5
1.296,   5.792e-5
1.299,   5.886e-5
1.302,   5.980e-5
1.305,   6.051e-5
1.308,   6.151e-5
1.311,   6.248e-5
1.314,   6.344e-5
1.317,   6.445e-5
1.320,   6.533e-5
1.323,   6.639e-5
1.326,   6.758e-5
1.329,   6.853e-5
1.332,   6.969e-5
1.335,   7.088e-5
1.338,   7.213e-5
1.341,   7.335e-5
1.344,   7.472e-5
1.347,   7.614e-5
1.350,   7.737e-5
1.353,   7.895e-5
1.356,   8.030e-5
1.359,   8.196e-5
1.362,   8.358e-5
1.365,   8.528e-5
1.368,   8.717e-5
1.371,   8.895e-5
1.374,   9.123e-5
1.377,   9.320e-5
1.380,   9.563e-5
1.383,   9.784e-5
1.386,   1.006e-4
1.389,   1.035e-4
1.392,   1.065e-4
1.395,   1.098e-4
1.398,   1.135e-4
1.401,   1.174e-4
1.404,   1.215e-4
1.407,   1.265e-4
1.410,   1.320e-4
1.413,   1.381e-4
1.416,   1.450e-4
1.419,   1.532e-4
1.422,   1.624e-4
1.425,   1.727e-4
1.428,   1.852e-4
1.431,   1.992e-4
1.434,   2.159e-4
1.437,   2.349e-4
1.440,   2.581e-4
1.443,   2.849e-4
1.446,   3.155e-4
1.449,   3.519e-4
1.452,   3.943e-4
1.455,   4.440e-4
1.458,   5.009e-4
1.461,   5.683e-4
1.464,   6.461e-4
1.467,   7.351e-4
1.470,   8.379e-4
1.473,   9.571e-4
1.476,   1.092e-3
1.479,   1.240e-3
1.482,   1.413e-3
1.485,   1.601e-3
1.488,   1.810e-3
1.491,   2.044e-3
1.494,   2.289e-3
1.497,   2.551e-3
1.500,   2.821e-3
1.503,   3.109e-3
1.506,   3.378e-3
1.509,   3.644e-3
1.512,   3.879e-3
1.515,   4.125e-3
1.518,   4.352e-3
1.521,   4.535e-3
1.524,   4.705e-3
1.527,   4.806e-3
1.530,   4.885e-3
1.533,   4.899e-3
1.536,   4.873e-3
1.539,   4.781e-3
1.542,   4.648e-3
1.545,   4.477e-3
1.548,   4.274e-3
1.551,   4.067e-3
1.554,   3.859e-3
1.555,   3.803e-3

File: B5_BEST_500_#1_Full(#6)-204mV.txt
June 9, 2023   15:36:32
Linear Sweep Voltammetry
File: d:\current work\al_oer\electrochemical test data\batch 5\500\B5_BEST_500_#1_Full(#6)-204mV.txt
Data Source:  Experiment
Instrument Model:  CHI660E
Header:
Note:

Init E (V) = 0.899

Final E (V) = 1.501

Scan Rate (V/s) = 0.010
Sample Interval (V) = 0.001
Quiet Time (sec) = 2
Sensitivity (A/V) = 0.001
Comp R (ohm) = 3.8

Results:

Channel 1:

Potential/V, Current/A
0.899,   3.713e-4
0.902,   4.630e-4
0.905,   4.574e-4
0.908,   4.370e-4
0.911,   4.392e-4
0.914,   4.246e-4
0.917,   4.354e-4
0.920,   4.289e-4
0.923,   4.096e-4
0.926,   4.158e-4
0.929,   4.038e-4
0.932,   4.157e-4
0.935,   4.074e-4
0.938,   3.931e-4
0.941,   4.012e-4
0.944,   3.892e-4
0.947,   3.996e-4
0.950,   3.932e-4
0.953,   3.824e-4
0.956,   3.898e-4
0.959,   3.828e-4
0.962,   3.888e-4
0.965,   3.867e-4
0.968,   3.723e-4
0.971,   3.846e-4
0.974,   3.684e-4
0.977,   3.850e-4
0.980,   3.804e-4
0.983,   3.677e-4
0.986,   3.735e-4
0.989,   3.613e-4
0.992,   3.768e-4
0.995,   3.759e-4
0.998,   3.664e-4
1.001,   3.722e-4
1.004,   3.604e-4
1.007,   3.740e-4
1.010,   3.740e-4
1.013,   3.643e-4
1.016,   3.668e-4
1.019,   3.589e-4
1.022,   3.732e-4
1.025,   3.748e-4
1.028,   3.637e-4
1.031,   3.655e-4
1.034,   3.560e-4
1.037,   3.759e-4
1.040,   3.747e-4
1.043,   3.660e-4
1.046,   3.713e-4
1.049,   3.645e-4
1.052,   3.791e-4
1.055,   3.820e-4
1.058,   3.697e-4
1.061,   3.756e-4
1.064,   3.654e-4
1.067,   3.823e-4
1.070,   3.868e-4
1.073,   3.719e-4
1.076,   3.794e-4
1.079,   3.702e-4
1.082,   3.842e-4
1.085,   3.879e-4
1.088,   3.824e-4
1.091,   3.916e-4
1.094,   3.772e-4
1.097,   3.941e-4
1.100,   3.982e-4
1.103,   3.892e-4
1.106,   4.000e-4
1.109,   3.869e-4
1.112,   4.018e-4
1.115,   4.060e-4
1.118,   4.039e-4
1.121,   4.118e-4
1.124,   3.911e-4
1.127,   4.039e-4
1.130,   4.112e-4
1.133,   4.143e-4
1.136,   4.257e-4
1.139,   4.101e-4
1.142,   4.284e-4
1.145,   4.288e-4
1.148,   4.295e-4
1.151,   4.390e-4
1.154,   4.225e-4
1.157,   4.416e-4
1.160,   4.459e-4
1.163,   4.456e-4
1.166,   4.527e-4
1.169,   4.439e-4
1.172,   4.586e-4
1.175,   4.685e-4
1.178,   4.593e-4
1.181,   4.742e-4
1.184,   4.521e-4
1.187,   4.719e-4
1.190,   4.851e-4
1.193,   4.779e-4
1.196,   4.931e-4
1.199,   4.786e-4
1.202,   4.975e-4
1.205,   5.077e-4
1.208,   4.969e-4
1.211,   5.171e-4
1.214,   4.991e-4
1.217,   5.268e-4
1.220,   5.276e-4
1.223,   5.184e-4
1.226,   5.361e-4
1.229,   5.228e-4
1.232,   5.401e-4
1.235,   5.530e-4
1.238,   5.444e-4
1.241,   5.590e-4
1.244,   5.443e-4
1.247,   5.607e-4
1.250,   5.701e-4
1.253,   5.631e-4
1.256,   5.810e-4
1.259,   5.636e-4
1.262,   5.808e-4
1.265,   5.896e-4
1.268,   5.778e-4
1.271,   5.860e-4
1.274,   5.735e-4
1.277,   6.041e-4
1.280,   6.162e-4
1.283,   5.971e-4
1.286,   6.005e-4
1.289,   5.930e-4
1.292,   6.213e-4
1.295,   6.316e-4
1.298,   6.072e-4
1.301,   6.032e-4
1.304,   6.046e-4
1.307,   6.444e-4
1.310,   6.538e-4
1.313,   6.202e-4
1.316,   6.201e-4
1.319,   6.174e-4
1.322,   6.634e-4
1.325,   6.690e-4
1.328,   6.397e-4
1.331,   6.413e-4
1.334,   6.436e-4
1.337,   6.779e-4
1.340,   6.885e-4
1.343,   6.660e-4
1.346,   6.768e-4
1.349,   6.686e-4
1.352,   7.046e-4
1.355,   7.255e-4
1.358,   6.995e-4
1.361,   7.026e-4
1.364,   7.010e-4
1.367,   7.478e-4
1.370,   7.585e-4
1.373,   7.508e-4
1.376,   7.662e-4
1.379,   7.593e-4
1.382,   8.010e-4
1.385,   8.344e-4
1.388,   8.247e-4
1.391,   8.467e-4
1.394,   8.498e-4
1.397,   9.031e-4
1.400,   9.536e-4
1.403,   9.468e-4
1.406,   9.947e-4
1.409,   1.014e-3
1.412,   1.104e-3
1.415,   1.183e-3
1.418,   1.213e-3
1.421,   1.292e-3
1.424,   1.375e-3
1.427,   1.575e-3
1.430,   1.745e-3
1.433,   1.845e-3
1.436,   2.040e-3
1.439,   2.274e-3
1.442,   2.666e-3
1.445,   3.066e-3
1.448,   3.384e-3
1.451,   3.883e-3
1.454,   4.433e-3
1.457,   5.299e-3
1.460,   6.194e-3
1.463,   6.899e-3
1.466,   7.842e-3
1.469,   8.627e-3
1.472,   9.624e-3
1.475,   1.006e-2
1.478,   1.007e-2
1.481,   1.007e-2
1.484,   1.007e-2
1.487,   1.007e-2
1.490,   1.007e-2
1.493,   1.007e-2
1.496,   1.007e-2
1.499,   1.007e-2
1.501,   1.007e-2

File: B5_BEST_500_#1_Full(#7)-225mV.txt
June 9, 2023   15:22:06
Linear Sweep Voltammetry
File: d:\current work\al_oer\electrochemical test data\batch 5\500\B5_BEST_500_#1_Full(#7)-225mV.txt
Data Source:  Experiment
Instrument Model:  CHI660E
Header:
Note:

Init E (V) = 0.900

Final E (V) = 1.543

Scan Rate (V/s) = 0.010
Sample Interval (V) = 0.001
Quiet Time (sec) = 2
Sensitivity (A/V) = 0.001
Comp R (ohm) = 4.6

Results:

Channel 1:

Potential/V, Current/A
0.900,   1.789e-4
0.903,   2.067e-4
0.906,   2.033e-4
0.909,   2.014e-4
0.912,   1.991e-4
0.915,   1.944e-4
0.918,   1.929e-4
0.921,   1.893e-4
0.924,   1.892e-4
0.927,   1.837e-4
0.930,   1.857e-4
0.933,   1.813e-4
0.936,   1.788e-4
0.939,   1.756e-4
0.942,   1.777e-4
0.945,   1.751e-4
0.948,   1.721e-4
0.951,   1.727e-4
0.954,   1.695e-4
0.957,   1.698e-4
0.960,   1.662e-4
0.963,   1.685e-4
0.966,   1.637e-4
0.969,   1.652e-4
0.972,   1.615e-4
0.975,   1.640e-4
0.978,   1.612e-4
0.981,   1.615e-4
0.984,   1.582e-4
0.987,   1.590e-4
0.990,   1.584e-4
0.993,   1.559e-4
0.996,   1.578e-4
0.999,   1.556e-4
1.002,   1.572e-4
1.005,   1.534e-4
1.008,   1.564e-4
1.011,   1.540e-4
1.014,   1.557e-4
1.017,   1.515e-4
1.020,   1.541e-4
1.023,   1.522e-4
1.026,   1.528e-4
1.029,   1.516e-4
1.032,   1.512e-4
1.035,   1.519e-4
1.038,   1.494e-4
1.041,   1.544e-4
1.044,   1.504e-4
1.047,   1.529e-4
1.050,   1.487e-4
1.053,   1.525e-4
1.056,   1.504e-4
1.059,   1.528e-4
1.062,   1.501e-4
1.065,   1.516e-4
1.068,   1.518e-4
1.071,   1.497e-4
1.074,   1.519e-4
1.077,   1.509e-4
1.080,   1.534e-4
1.083,   1.499e-4
1.086,   1.552e-4
1.089,   1.516e-4
1.092,   1.547e-4
1.095,   1.516e-4
1.098,   1.552e-4
1.101,   1.548e-4
1.104,   1.549e-4
1.107,   1.541e-4
1.110,   1.559e-4
1.113,   1.587e-4
1.116,   1.555e-4
1.119,   1.592e-4
1.122,   1.574e-4
1.125,   1.609e-4
1.128,   1.562e-4
1.131,   1.629e-4
1.134,   1.597e-4
1.137,   1.641e-4
1.140,   1.604e-4
1.143,   1.661e-4
1.146,   1.641e-4
1.149,   1.647e-4
1.152,   1.638e-4
1.155,   1.647e-4
1.158,   1.697e-4
1.161,   1.660e-4
1.164,   1.724e-4
1.167,   1.680e-4
1.170,   1.753e-4
1.173,   1.692e-4
1.176,   1.798e-4
1.179,   1.740e-4
1.182,   1.804e-4
1.185,   1.746e-4
1.188,   1.804e-4
1.191,   1.833e-4
1.194,   1.789e-4
1.197,   1.857e-4
1.200,   1.825e-4
1.203,   1.914e-4
1.206,   1.831e-4
1.209,   1.955e-4
1.212,   1.854e-4
1.215,   1.993e-4
1.218,   1.895e-4
1.221,   2.016e-4
1.224,   1.957e-4
1.227,   2.011e-4
1.230,   1.991e-4
1.233,   2.017e-4
1.236,   2.070e-4
1.239,   2.019e-4
1.242,   2.119e-4
1.245,   2.026e-4
1.248,   2.204e-4
1.251,   2.024e-4
1.254,   2.228e-4
1.257,   2.057e-4
1.260,   2.297e-4
1.263,   2.065e-4
1.266,   2.300e-4
1.269,   2.141e-4
1.272,   2.263e-4
1.275,   2.184e-4
1.278,   2.216e-4
1.281,   2.318e-4
1.284,   2.128e-4
1.287,   2.399e-4
1.290,   2.189e-4
1.293,   2.448e-4
1.296,   2.099e-4
1.299,   2.489e-4
1.302,   2.200e-4
1.305,   2.465e-4
1.308,   2.300e-4
1.311,   2.471e-4
1.314,   2.396e-4
1.317,   2.387e-4
1.320,   2.498e-4
1.323,   2.336e-4
1.326,   2.639e-4
1.329,   2.326e-4
1.332,   2.685e-4
1.335,   2.439e-4
1.338,   2.760e-4
1.341,   2.462e-4
1.344,   2.705e-4
1.347,   2.566e-4
1.350,   2.628e-4
1.353,   2.600e-4
1.356,   3.086e-4
1.359,   3.062e-4
1.362,   2.429e-4
1.365,   3.117e-4
1.368,   2.296e-4
1.371,   3.074e-4
1.374,   2.168e-4
1.377,   3.385e-4
1.380,   2.784e-4
1.383,   3.369e-4
1.386,   2.939e-4
1.389,   3.608e-4
1.392,   3.371e-4
1.395,   3.688e-4
1.398,   3.647e-4
1.401,   3.670e-4
1.404,   4.092e-4
1.407,   4.027e-4
1.410,   4.258e-4
1.413,   4.517e-4
1.416,   4.765e-4
1.419,   5.361e-4
1.422,   4.544e-4
1.425,   6.460e-4
1.428,   5.814e-4
1.431,   7.010e-4
1.434,   7.842e-4
1.437,   8.270e-4
1.440,   9.718e-4
1.443,   1.078e-3
1.446,   1.340e-3
1.449,   1.334e-3
1.452,   1.711e-3
1.455,   1.819e-3
1.458,   2.343e-3
1.461,   2.409e-3
1.464,   3.079e-3
1.467,   3.500e-3
1.470,   4.098e-3
1.473,   4.822e-3
1.476,   5.361e-3
1.479,   6.347e-3
1.482,   7.025e-3
1.485,   8.065e-3
1.488,   8.730e-3
1.491,   9.535e-3
1.494,   9.791e-3
1.497,   9.987e-3
1.500,   1.007e-2
1.503,   1.007e-2
1.506,   1.007e-2
1.509,   1.007e-2
1.512,   1.007e-2
1.515,   1.007e-2
1.518,   1.007e-2
1.521,   1.007e-2
1.524,   1.007e-2
1.527,   1.007e-2
1.530,   1.007e-2
1.533,   1.007e-2
1.536,   1.007e-2
1.539,   1.007e-2
1.542,   1.007e-2
1.543,   1.007e-2

File: B5_BEST_500_#1_Full(#8)-215mV.txt
June 9, 2023   15:13:53
Linear Sweep Voltammetry
File: d:\current work\al_oer\electrochemical test data\batch 5\500\B5_BEST_500_#1_Full(#8)-215mV.txt
Data Source:  Experiment
Instrument Model:  CHI660E
Header:
Note:

Init E (V) = 0.897

Final E (V) = 1.509

Scan Rate (V/s) = 0.010
Sample Interval (V) = 0.001
Quiet Time (sec) = 2
Sensitivity (A/V) = 0.001
Comp R (ohm) = 4.7

Results:

Channel 1:

Potential/V, Current/A
0.897,   2.700e-4
0.900,   2.881e-4
0.903,   2.859e-4
0.906,   2.858e-4
0.909,   2.798e-4
0.912,   2.816e-4
0.915,   2.600e-4
0.918,   2.647e-4
0.921,   2.610e-4
0.924,   2.619e-4
0.927,   2.566e-4
0.930,   2.447e-4
0.933,   2.485e-4
0.936,   2.429e-4
0.939,   2.479e-4
0.942,   2.351e-4
0.945,   2.336e-4
0.948,   2.349e-4
0.951,   2.301e-4
0.954,   2.355e-4
0.957,   2.212e-4
0.960,   2.253e-4
0.963,   2.225e-4
0.966,   2.244e-4
0.969,   2.227e-4
0.972,   2.147e-4
0.975,   2.187e-4
0.978,   2.139e-4
0.981,   2.200e-4
0.984,   2.108e-4
0.987,   2.080e-4
0.990,   2.120e-4
0.993,   2.085e-4
0.996,   2.162e-4
0.999,   2.022e-4
1.002,   2.058e-4
1.005,   2.064e-4
1.008,   2.072e-4
1.011,   2.084e-4
1.014,   1.978e-4
1.017,   2.048e-4
1.020,   2.015e-4
1.023,   2.080e-4
1.026,   2.005e-4
1.029,   1.971e-4
1.032,   2.033e-4
1.035,   1.991e-4
1.038,   2.081e-4
1.041,   1.961e-4
1.044,   2.002e-4
1.047,   2.005e-4
1.050,   2.010e-4
1.053,   2.057e-4
1.056,   1.947e-4
1.059,   2.005e-4
1.062,   1.986e-4
1.065,   2.053e-4
1.068,   2.006e-4
1.071,   1.973e-4
1.074,   2.021e-4
1.077,   1.993e-4
1.080,   2.089e-4
1.083,   1.980e-4
1.086,   2.014e-4
1.089,   2.034e-4
1.092,   2.056e-4
1.095,   2.108e-4
1.098,   1.972e-4
1.101,   2.058e-4
1.104,   2.052e-4
1.107,   2.149e-4
1.110,   2.107e-4
1.113,   2.042e-4
1.116,   2.119e-4
1.119,   2.091e-4
1.122,   2.238e-4
1.125,   2.102e-4
1.128,   2.130e-4
1.131,   2.142e-4
1.134,   2.185e-4
1.137,   2.270e-4
1.140,   2.113e-4
1.143,   2.215e-4
1.146,   2.200e-4
1.149,   2.306e-4
1.152,   2.265e-4
1.155,   2.191e-4
1.158,   2.282e-4
1.161,   2.230e-4
1.164,   2.436e-4
1.167,   2.270e-4
1.170,   2.295e-4
1.173,   2.359e-4
1.176,   2.368e-4
1.179,   2.506e-4
1.182,   2.303e-4
1.185,   2.438e-4
1.188,   2.387e-4
1.191,   2.555e-4
1.194,   2.500e-4
1.197,   2.395e-4
1.200,   2.555e-4
1.203,   2.474e-4
1.206,   2.713e-4
1.209,   2.495e-4
1.212,   2.596e-4
1.215,   2.662e-4
1.218,   2.626e-4
1.221,   2.811e-4
1.224,   2.561e-4
1.227,   2.773e-4
1.230,   2.675e-4
1.233,   2.898e-4
1.236,   2.829e-4
1.239,   2.744e-4
1.242,   2.961e-4
1.245,   2.769e-4
1.248,   3.118e-4
1.251,   2.831e-4
1.254,   2.990e-4
1.257,   3.033e-4
1.260,   3.006e-4
1.263,   3.202e-4
1.266,   2.926e-4
1.269,   3.236e-4
1.272,   3.060e-4
1.275,   3.282e-4
1.278,   3.236e-4
1.281,   3.168e-4
1.284,   3.397e-4
1.287,   3.166e-4
1.290,   3.553e-4
1.293,   3.272e-4
1.296,   3.416e-4
1.299,   3.474e-4
1.302,   3.394e-4
1.305,   3.692e-4
1.308,   3.369e-4
1.311,   3.671e-4
1.314,   3.509e-4
1.317,   3.739e-4
1.320,   3.734e-4
1.323,   3.605e-4
1.326,   3.910e-4
1.329,   3.627e-4
1.332,   4.084e-4
1.335,   3.747e-4
1.338,   3.966e-4
1.341,   4.029e-4
1.344,   3.875e-4
1.347,   4.248e-4
1.350,   3.924e-4
1.353,   4.378e-4
1.356,   4.109e-4
1.359,   4.377e-4
1.362,   4.394e-4
1.365,   4.316e-4
1.368,   4.736e-4
1.371,   4.356e-4
1.374,   4.918e-4
1.377,   4.618e-4
1.380,   4.973e-4
1.383,   5.083e-4
1.386,   4.967e-4
1.389,   5.469e-4
1.392,   5.186e-4
1.395,   5.876e-4
1.398,   5.588e-4
1.401,   6.081e-4
1.404,   6.304e-4
1.407,   6.387e-4
1.410,   7.162e-4
1.413,   6.821e-4
1.416,   7.971e-4
1.419,   7.808e-4
1.422,   8.974e-4
1.425,   9.467e-4
1.428,   9.908e-4
1.431,   1.153e-3
1.434,   1.190e-3
1.437,   1.436e-3
1.440,   1.490e-3
1.443,   1.751e-3
1.446,   1.955e-3
1.449,   2.225e-3
1.452,   2.630e-3
1.455,   2.858e-3
1.458,   3.531e-3
1.461,   3.850e-3
1.464,   4.644e-3
1.467,   5.335e-3
1.470,   5.972e-3
1.473,   6.782e-3
1.476,   7.353e-3
1.479,   8.482e-3
1.482,   9.250e-3
1.485,   9.651e-3
1.488,   9.665e-3
1.491,   9.874e-3
1.494,   1.007e-2
1.497,   1.007e-2
1.500,   1.007e-2
1.503,   1.007e-2
1.506,   1.007e-2
1.509,   1.007e-2