Folder: DASH/Experimental Records and Raw Data/batch5/final400 (part 2)

File: B5_BEST_400_#1_Full(#10)-177mV.txt
May 31, 2023   14:15:05
Linear Sweep Voltammetry
File: d:\current work\al_oer\electrochemical test data\batch 5\400\B5_BEST_400_#1_Full(#10)-177mV.txt
Data Source:  Experiment
Instrument Model:  CHI660E
Header:
Note:

Init E (V) = 0.901

Final E (V) = 1.484

Scan Rate (V/s) = 0.010
Sample Interval (V) = 0.001
Quiet Time (sec) = 2
Sensitivity (A/V) = 0.001
Comp R (ohm) = 5.0

Results:

Channel 1:

Potential/V, Current/A
0.901,   4.153e-4
0.903,   5.786e-4
0.905,   5.825e-4
0.907,   5.947e-4
0.909,   5.733e-4
0.911,   5.657e-4
0.913,   5.765e-4
0.915,   5.651e-4
0.917,   5.489e-4
0.919,   5.593e-4
0.921,   5.534e-4
0.923,   5.413e-4
0.925,   5.458e-4
0.927,   5.430e-4
0.929,   5.266e-4
0.931,   5.367e-4
0.933,   5.302e-4
0.935,   5.193e-4
0.937,   5.249e-4
0.939,   5.263e-4
0.941,   5.139e-4
0.943,   5.216e-4
0.945,   5.167e-4
0.947,   5.052e-4
0.949,   5.194e-4
0.951,   5.181e-4
0.953,   4.937e-4
0.955,   5.043e-4
0.957,   5.032e-4
0.959,   4.928e-4
0.961,   5.055e-4
0.963,   4.958e-4
0.965,   4.884e-4
0.967,   4.950e-4
0.969,   4.974e-4
0.971,   4.882e-4
0.973,   4.906e-4
0.975,   4.931e-4
0.977,   4.851e-4
0.979,   4.851e-4
0.981,   4.962e-4
0.983,   4.806e-4
0.985,   4.873e-4
0.987,   4.871e-4
0.989,   4.872e-4
0.991,   4.825e-4
0.993,   4.801e-4
0.995,   4.839e-4
0.997,   4.817e-4
0.999,   4.778e-4
1.001,   4.818e-4
1.003,   4.795e-4
1.005,   4.792e-4
1.007,   4.815e-4
1.009,   4.758e-4
1.011,   4.746e-4
1.013,   4.840e-4
1.015,   4.764e-4
1.017,   4.708e-4
1.019,   4.852e-4
1.021,   4.767e-4
1.023,   4.782e-4
1.025,   4.803e-4
1.027,   4.798e-4
1.029,   4.800e-4
1.031,   4.805e-4
1.033,   4.771e-4
1.035,   4.783e-4
1.037,   4.833e-4
1.039,   4.758e-4
1.041,   4.780e-4
1.043,   4.878e-4
1.045,   4.818e-4
1.047,   4.777e-4
1.049,   4.907e-4
1.051,   4.860e-4
1.053,   4.816e-4
1.055,   4.876e-4
1.057,   4.856e-4
1.059,   4.803e-4
1.061,   4.953e-4
1.063,   4.874e-4
1.065,   4.789e-4
1.067,   4.937e-4
1.069,   4.929e-4
1.071,   4.822e-4
1.073,   5.019e-4
1.075,   4.913e-4
1.077,   4.844e-4
1.079,   5.031e-4
1.081,   4.942e-4
1.083,   4.855e-4
1.085,   5.044e-4
1.087,   4.986e-4
1.089,   4.937e-4
1.091,   5.099e-4
1.093,   4.970e-4
1.095,   4.989e-4
1.097,   5.097e-4
1.099,   5.031e-4
1.101,   5.014e-4
1.103,   5.164e-4
1.105,   5.106e-4
1.107,   5.043e-4
1.109,   5.120e-4
1.111,   5.131e-4
1.113,   5.086e-4
1.115,   5.257e-4
1.117,   5.237e-4
1.119,   5.248e-4
1.121,   5.268e-4
1.123,   5.241e-4
1.125,   5.254e-4
1.127,   5.311e-4
1.129,   5.275e-4
1.131,   5.454e-4
1.133,   5.300e-4
1.135,   5.340e-4
1.137,   5.416e-4
1.139,   5.422e-4
1.141,   5.447e-4
1.143,   5.499e-4
1.145,   5.417e-4
1.147,   5.491e-4
1.149,   5.565e-4
1.151,   5.479e-4
1.153,   5.524e-4
1.155,   5.665e-4
1.157,   5.566e-4
1.159,   5.576e-4
1.161,   5.844e-4
1.163,   5.644e-4
1.165,   5.612e-4
1.167,   5.857e-4
1.169,   5.679e-4
1.171,   5.706e-4
1.173,   5.941e-4
1.175,   5.792e-4
1.177,   5.738e-4
1.179,   5.982e-4
1.181,   5.935e-4
1.183,   5.810e-4
1.185,   6.088e-4
1.187,   5.915e-4
1.189,   5.983e-4
1.191,   6.236e-4
1.193,   6.129e-4
1.195,   5.959e-4
1.197,   6.237e-4
1.199,   6.172e-4
1.201,   5.985e-4
1.203,   6.318e-4
1.205,   6.332e-4
1.207,   6.098e-4
1.209,   6.401e-4
1.211,   6.337e-4
1.213,   6.255e-4
1.215,   6.578e-4
1.217,   6.358e-4
1.219,   6.343e-4
1.221,   6.685e-4
1.223,   6.527e-4
1.225,   6.433e-4
1.227,   6.788e-4
1.229,   6.610e-4
1.231,   6.576e-4
1.233,   6.907e-4
1.235,   6.772e-4
1.237,   6.672e-4
1.239,   6.955e-4
1.241,   6.815e-4
1.243,   6.858e-4
1.245,   7.120e-4
1.247,   6.903e-4
1.249,   6.973e-4
1.251,   7.244e-4
1.253,   7.050e-4
1.255,   7.153e-4
1.257,   7.378e-4
1.259,   7.118e-4
1.261,   7.342e-4
1.263,   7.502e-4
1.265,   7.322e-4
1.267,   7.467e-4
1.269,   7.600e-4
1.271,   7.419e-4
1.273,   7.561e-4
1.275,   7.815e-4
1.277,   7.564e-4
1.279,   7.722e-4
1.281,   7.915e-4
1.283,   7.689e-4
1.285,   7.938e-4
1.287,   8.094e-4
1.289,   7.908e-4
1.291,   8.025e-4
1.293,   8.150e-4
1.295,   8.128e-4
1.297,   8.412e-4
1.299,   8.388e-4
1.301,   8.172e-4
1.303,   8.462e-4
1.305,   8.551e-4
1.307,   8.454e-4
1.309,   8.842e-4
1.311,   8.712e-4
1.313,   8.558e-4
1.315,   8.978e-4
1.317,   8.905e-4
1.319,   8.808e-4
1.321,   9.264e-4
1.323,   9.141e-4
1.325,   9.034e-4
1.327,   9.505e-4
1.329,   9.376e-4
1.331,   9.272e-4
1.333,   9.776e-4
1.335,   9.670e-4
1.337,   9.516e-4
1.339,   1.004e-3
1.341,   9.808e-4
1.343,   9.841e-4
1.345,   1.044e-3
1.347,   1.011e-3
1.349,   1.011e-3
1.351,   1.100e-3
1.353,   1.039e-3
1.355,   1.064e-3
1.357,   1.113e-3
1.359,   1.080e-3
1.361,   1.099e-3
1.363,   1.151e-3
1.365,   1.141e-3
1.367,   1.146e-3
1.369,   1.210e-3
1.371,   1.194e-3
1.373,   1.201e-3
1.375,   1.267e-3
1.377,   1.247e-3
1.379,   1.292e-3
1.381,   1.352e-3
1.383,   1.334e-3
1.385,   1.384e-3
1.387,   1.432e-3
1.389,   1.427e-3
1.391,   1.497e-3
1.393,   1.549e-3
1.395,   1.561e-3
1.397,   1.633e-3
1.399,   1.708e-3
1.401,   1.721e-3
1.403,   1.828e-3
1.405,   1.908e-3
1.407,   1.926e-3
1.409,   2.069e-3
1.411,   2.157e-3
1.413,   2.194e-3
1.415,   2.392e-3
1.417,   2.470e-3
1.419,   2.576e-3
1.421,   2.809e-3
1.423,   2.940e-3
1.425,   3.098e-3
1.427,   3.373e-3
1.429,   3.540e-3
1.431,   3.743e-3
1.433,   4.176e-3
1.435,   4.430e-3
1.437,   4.723e-3
1.439,   5.280e-3
1.441,   5.550e-3
1.443,   5.937e-3
1.445,   6.699e-3
1.447,   6.940e-3
1.449,   7.390e-3
1.451,   8.221e-3
1.453,   8.477e-3
1.455,   8.899e-3
1.457,   9.557e-3
1.459,   9.811e-3
1.461,   1.007e-2
1.463,   1.007e-2
1.465,   1.007e-2
1.467,   1.007e-2
1.469,   1.007e-2
1.471,   1.007e-2
1.473,   1.007e-2
1.475,   1.007e-2
1.477,   1.007e-2
1.479,   1.007e-2
1.481,   1.007e-2
1.483,   1.007e-2
1.484,   1.007e-2

File: B5_BEST_400_#1_Full(#11)-246mV.txt
May 31, 2023   15:45:12
Linear Sweep Voltammetry
File: d:\current work\al_oer\electrochemical test data\batch 5\400\B5_BEST_400_#1_Full(#11)-246mV.txt
Data Source:  Experiment
Instrument Model:  CHI660E
Header:
Note:

Init E (V) = 0.899

Final E (V) = 1.570

Scan Rate (V/s) = 0.010
Sample Interval (V) = 0.001
Quiet Time (sec) = 2
Sensitivity (A/V) = 0.001
Comp R (ohm) = 6.4

Results:

Channel 1:

Potential/V, Current/A
0.899,   1.190e-4
0.902,   1.289e-4
0.905,   1.277e-4
0.908,   1.266e-4
0.911,   1.253e-4
0.914,   1.234e-4
0.917,   1.222e-4
0.920,   1.203e-4
0.923,   1.190e-4
0.926,   1.178e-4
0.929,   1.164e-4
0.932,   1.152e-4
0.935,   1.135e-4
0.938,   1.121e-4
0.941,   1.117e-4
0.944,   1.102e-4
0.947,   1.096e-4
0.950,   1.087e-4
0.953,   1.074e-4
0.956,   1.070e-4
0.959,   1.061e-4
0.962,   1.049e-4
0.965,   1.042e-4
0.968,   1.034e-4
0.971,   1.029e-4
0.974,   1.020e-4
0.977,   1.012e-4
0.980,   1.009e-4
0.983,   9.983e-5
0.986,   9.934e-5
0.989,   9.903e-5
0.992,   9.839e-5
0.995,   9.786e-5
0.998,   9.734e-5
1.001,   9.645e-5
1.004,   9.640e-5
1.007,   9.576e-5
1.010,   9.540e-5
1.013,   9.493e-5
1.016,   9.432e-5
1.019,   9.458e-5
1.022,   9.362e-5
1.025,   9.335e-5
1.028,   9.326e-5
1.031,   9.212e-5
1.034,   9.266e-5
1.037,   9.193e-5
1.040,   9.162e-5
1.043,   9.164e-5
1.046,   9.142e-5
1.049,   9.078e-5
1.052,   9.081e-5
1.055,   9.024e-5
1.058,   9.030e-5
1.061,   9.000e-5
1.064,   8.985e-5
1.067,   8.993e-5
1.070,   8.971e-5
1.073,   8.935e-5
1.076,   8.945e-5
1.079,   8.943e-5
1.082,   8.929e-5
1.085,   8.940e-5
1.088,   8.913e-5
1.091,   8.971e-5
1.094,   8.919e-5
1.097,   8.902e-5
1.100,   8.918e-5
1.103,   8.916e-5
1.106,   8.954e-5
1.109,   8.938e-5
1.112,   8.986e-5
1.115,   8.948e-5
1.118,   8.981e-5
1.121,   8.962e-5
1.124,   8.960e-5
1.127,   9.008e-5
1.130,   9.060e-5
1.133,   9.007e-5
1.136,   9.046e-5
1.139,   9.075e-5
1.142,   9.029e-5
1.145,   9.118e-5
1.148,   9.118e-5
1.151,   9.181e-5
1.154,   9.203e-5
1.157,   9.199e-5
1.160,   9.244e-5
1.163,   9.244e-5
1.166,   9.274e-5
1.169,   9.326e-5
1.172,   9.349e-5
1.175,   9.391e-5
1.178,   9.430e-5
1.181,   9.443e-5
1.184,   9.491e-5
1.187,   9.520e-5
1.190,   9.530e-5
1.193,   9.636e-5
1.196,   9.593e-5
1.199,   9.706e-5
1.202,   9.721e-5
1.205,   9.747e-5
1.208,   9.827e-5
1.211,   9.852e-5
1.214,   9.934e-5
1.217,   9.980e-5
1.220,   9.940e-5
1.223,   1.007e-4
1.226,   1.014e-4
1.229,   1.015e-4
1.232,   1.023e-4
1.235,   1.021e-4
1.238,   1.035e-4
1.241,   1.039e-4
1.244,   1.046e-4
1.247,   1.052e-4
1.250,   1.058e-4
1.253,   1.067e-4
1.256,   1.074e-4
1.259,   1.079e-4
1.262,   1.083e-4
1.265,   1.096e-4
1.268,   1.099e-4
1.271,   1.109e-4
1.274,   1.113e-4
1.277,   1.121e-4
1.280,   1.130e-4
1.283,   1.140e-4
1.286,   1.150e-4
1.289,   1.148e-4
1.292,   1.153e-4
1.295,   1.169e-4
1.298,   1.178e-4
1.301,   1.180e-4
1.304,   1.191e-4
1.307,   1.198e-4
1.310,   1.211e-4
1.313,   1.210e-4
1.316,   1.222e-4
1.319,   1.236e-4
1.322,   1.242e-4
1.325,   1.248e-4
1.328,   1.259e-4
1.331,   1.268e-4
1.334,   1.290e-4
1.337,   1.296e-4
1.340,   1.313e-4
1.343,   1.322e-4
1.346,   1.336e-4
1.349,   1.347e-4
1.352,   1.363e-4
1.355,   1.378e-4
1.358,   1.402e-4
1.361,   1.416e-4
1.364,   1.436e-4
1.367,   1.454e-4
1.370,   1.474e-4
1.373,   1.499e-4
1.376,   1.542e-4
1.379,   1.556e-4
1.382,   1.593e-4
1.385,   1.630e-4
1.388,   1.657e-4
1.391,   1.694e-4
1.394,   1.741e-4
1.397,   1.801e-4
1.400,   1.863e-4
1.403,   1.931e-4
1.406,   1.998e-4
1.409,   2.078e-4
1.412,   2.188e-4
1.415,   2.301e-4
1.418,   2.430e-4
1.421,   2.591e-4
1.424,   2.754e-4
1.427,   2.990e-4
1.430,   3.251e-4
1.433,   3.540e-4
1.436,   3.920e-4
1.439,   4.315e-4
1.442,   4.832e-4
1.445,   5.423e-4
1.448,   6.054e-4
1.451,   6.870e-4
1.454,   7.745e-4
1.457,   8.797e-4
1.460,   1.000e-3
1.463,   1.126e-3
1.466,   1.285e-3
1.469,   1.448e-3
1.472,   1.632e-3
1.475,   1.837e-3
1.478,   2.052e-3
1.481,   2.295e-3
1.484,   2.559e-3
1.487,   2.819e-3
1.490,   3.116e-3
1.493,   3.442e-3
1.496,   3.772e-3
1.499,   4.120e-3
1.502,   4.428e-3
1.505,   4.856e-3
1.508,   5.217e-3
1.511,   5.572e-3
1.514,   5.928e-3
1.517,   6.273e-3
1.520,   6.711e-3
1.523,   7.089e-3
1.526,   7.397e-3
1.529,   7.756e-3
1.532,   8.081e-3
1.535,   8.487e-3
1.538,   8.744e-3
1.541,   9.020e-3
1.544,   9.477e-3
1.547,   9.726e-3
1.550,   9.866e-3
1.553,   9.989e-3
1.556,   1.003e-2
1.559,   1.007e-2
1.562,   1.007e-2
1.565,   1.007e-2
1.568,   1.007e-2
1.570,   1.007e-2

File: B5_BEST_400_#1_Full(#12)-288mV.txt
May 30, 2023   14:58:04
Linear Sweep Voltammetry
File: d:\current work\al_oer\electrochemical test data\batch 5\400\B5_BEST_400_#1_Full(#12)-288mV.txt
Data Source:  Experiment
Instrument Model:  CHI660E
Header:
Note:

Init E (V) = 0.900

Final E (V) = 1.639

Scan Rate (V/s) = 0.010
Sample Interval (V) = 0.001
Quiet Time (sec) = 2
Sensitivity (A/V) = 0.001

Results:

Channel 1:

Potential/V, Current/A
0.91,   1.618E-04
0.913,   1.514E-04
0.916,   1.390E-04
0.919,   1.286E-04
0.922,   1.196E-04
0.925,   1.120E-04
0.928,   1.055E-04
0.931,   9.946E-05
0.934,   9.440E-05
0.937,   9.018E-05
0.94,   8.619E-05
0.943,   8.248E-05
0.946,   7.924E-05
0.949,   7.655E-05
0.952,   7.371E-05
0.955,   7.132E-05
0.958,   6.916E-05
0.961,   6.696E-05
0.964,   6.545E-05
0.967,   6.349E-05
0.97,   6.204E-05
0.973,   6.067E-05
0.976,   5.920E-05
0.979,   5.809E-05
0.982,   5.682E-05
0.985,   5.565E-05
0.988,   5.474E-05
0.991,   5.381E-05
0.994,   5.302E-05
0.997,   5.231E-05
1,   5.159E-05
1.003,   5.093E-05
1.006,   5.024E-05
1.009,   4.963E-05
1.012,   4.903E-05
1.015,   4.857E-05
1.018,   4.797E-05
1.021,   4.754E-05
1.024,   4.708E-05
1.027,   4.653E-05
1.03,   4.621E-05
1.033,   4.603E-05
1.036,   4.548E-05
1.039,   4.540E-05
1.042,   4.498E-05
1.045,   4.455E-05
1.048,   4.448E-05
1.051,   4.419E-05
1.054,   4.399E-05
1.057,   4.382E-05
1.06,   4.364E-05
1.063,   4.341E-05
1.066,   4.330E-05
1.069,   4.317E-05
1.072,   4.294E-05
1.075,   4.291E-05
1.078,   4.279E-05
1.081,   4.267E-05
1.084,   4.261E-05
1.087,   4.249E-05
1.09,   4.240E-05
1.093,   4.227E-05
1.096,   4.231E-05
1.099,   4.239E-05
1.102,   4.209E-05
1.105,   4.216E-05
1.108,   4.224E-05
1.111,   4.234E-05
1.114,   4.238E-05
1.117,   4.230E-05
1.12,   4.225E-05
1.123,   4.243E-05
1.126,   4.260E-05
1.129,   4.260E-05
1.132,   4.259E-05
1.135,   4.276E-05
1.138,   4.268E-05
1.141,   4.285E-05
1.144,   4.291E-05
1.147,   4.305E-05
1.15,   4.312E-05
1.153,   4.349E-05
1.156,   4.359E-05
1.159,   4.373E-05
1.162,   4.396E-05
1.165,   4.394E-05
1.168,   4.418E-05
1.171,   4.440E-05
1.174,   4.472E-05
1.177,   4.493E-05
1.18,   4.515E-05
1.183,   4.535E-05
1.186,   4.557E-05
1.189,   4.581E-05
1.192,   4.607E-05
1.195,   4.629E-05
1.198,   4.663E-05
1.201,   4.691E-05
1.204,   4.713E-05
1.207,   4.729E-05
1.21,   4.768E-05
1.213,   4.825E-05
1.216,   4.835E-05
1.219,   4.870E-05
1.222,   4.894E-05
1.225,   4.926E-05
1.228,   4.955E-05
1.231,   4.987E-05
1.234,   5.017E-05
1.237,   5.077E-05
1.24,   5.102E-05
1.243,   5.136E-05
1.246,   5.153E-05
1.249,   5.192E-05
1.252,   5.213E-05
1.255,   5.244E-05
1.258,   5.271E-05
1.261,   5.304E-05
1.264,   5.321E-05
1.267,   5.361E-05
1.27,   5.389E-05
1.273,   5.410E-05
1.276,   5.435E-05
1.279,   5.457E-05
1.282,   5.480E-05
1.285,   5.497E-05
1.288,   5.537E-05
1.291,   5.563E-05
1.294,   5.583E-05
1.297,   5.613E-05
1.3,   5.629E-05
1.303,   5.657E-05
1.306,   5.680E-05
1.309,   5.679E-05
1.312,   5.703E-05
1.315,   5.740E-05
1.318,   5.766E-05
1.321,   5.784E-05
1.324,   5.811E-05
1.327,   5.835E-05
1.33,   5.865E-05
1.333,   5.889E-05
1.336,   5.917E-05
1.339,   5.930E-05
1.342,   5.970E-05
1.345,   6.026E-05
1.348,   6.023E-05
1.351,   6.061E-05
1.354,   6.092E-05
1.357,   6.129E-05
1.36,   6.175E-05
1.363,   6.218E-05
1.366,   6.271E-05
1.369,   6.336E-05
1.372,   6.387E-05
1.375,   6.424E-05
1.378,   6.504E-05
1.381,   6.536E-05
1.384,   6.599E-05
1.387,   6.668E-05
1.39,   6.758E-05
1.393,   6.877E-05
1.396,   6.974E-05
1.399,   7.062E-05
1.402,   7.184E-05
1.405,   7.331E-05
1.408,   7.488E-05
1.411,   7.699E-05
1.414,   7.883E-05
1.417,   8.183E-05
1.42,   8.452E-05
1.423,   8.804E-05
1.426,   9.260E-05
1.429,   9.723E-05
1.432,   1.034E-04
1.435,   1.110E-04
1.438,   1.198E-04
1.441,   1.305E-04
1.444,   1.428E-04
1.447,   1.577E-04
1.45,   1.754E-04
1.453,   1.954E-04
1.456,   2.193E-04
1.459,   2.463E-04
1.462,   2.774E-04
1.465,   3.130E-04
1.468,   3.527E-04
1.471,   3.981E-04
1.474,   4.480E-04
1.477,   5.039E-04
1.48,   5.657E-04
1.483,   6.326E-04
1.486,   7.078E-04
1.489,   7.882E-04
1.492,   8.750E-04
1.495,   9.713E-04
1.498,   1.076E-03
1.501,   1.184E-03
1.504,   1.299E-03
1.507,   1.425E-03
1.51,   1.553E-03
1.513,   1.685E-03
1.516,   1.835E-03
1.519,   1.984E-03
1.522,   2.139E-03
1.525,   2.292E-03
1.528,   2.456E-03
1.531,   2.644E-03
1.534,   2.801E-03
1.537,   2.975E-03
1.54,   3.176E-03
1.543,   3.337E-03
1.546,   3.574E-03
1.549,   3.727E-03
1.552,   3.905E-03
1.555,   4.103E-03
1.558,   4.267E-03
1.561,   4.497E-03
1.564,   4.682E-03
1.567,   4.957E-03
1.57,   5.096E-03
1.573,   5.263E-03
1.576,   5.410E-03
1.579,   6.096E-03
1.582,   6.157E-03
1.585,   6.366E-03
1.588,   6.443E-03
1.591,   6.679E-03
1.594,   6.855E-03
1.597,   6.980E-03
1.6,   7.530E-03
1.603,   7.721E-03
1.606,   7.793E-03
1.609,   8.367E-03
1.612,   8.712E-03
1.615,   8.846E-03
1.618,   9.038E-03
1.621,   9.300E-03
1.624,   9.268E-03
1.627,   9.252E-03
1.63,   9.603E-03
1.633,   9.812E-03
1.636,   1.007E-02
1.639,   1.007E-02

File: B5_BEST_400_#1_Full(#13)-190mV.txt
May 31, 2023   17:01:06
Linear Sweep Voltammetry
File: d:\current work\al_oer\electrochemical test data\batch 5\400\B5_BEST_400_#1_Full(#13)-190mV.txt
Data Source:  Experiment
Instrument Model:  CHI660E
Header:
Note:

Init E (V) = 0.895

Final E (V) = 1.481

Scan Rate (V/s) = 0.010
Sample Interval (V) = 0.001
Quiet Time (sec) = 2
Sensitivity (A/V) = 0.001
Comp R (ohm) = 6.0

Results:

Channel 1:

Potential/V, Current/A
0.895,   4.127e-4
0.897,   5.068e-4
0.899,   5.448e-4
0.901,   4.985e-4
0.903,   5.327e-4
0.905,   4.830e-4
0.907,   4.989e-4
0.909,   4.995e-4
0.911,   4.826e-4
0.913,   5.080e-4
0.915,   4.732e-4
0.917,   4.968e-4
0.919,   4.657e-4
0.921,   4.719e-4
0.923,   4.743e-4
0.925,   4.592e-4
0.927,   4.773e-4
0.929,   4.556e-4
0.931,   4.710e-4
0.933,   4.468e-4
0.935,   4.513e-4
0.937,   4.455e-4
0.939,   4.468e-4
0.941,   4.647e-4
0.943,   4.356e-4
0.945,   4.739e-4
0.947,   4.235e-4
0.949,   4.513e-4
0.951,   4.325e-4
0.953,   4.316e-4
0.955,   4.419e-4
0.957,   4.240e-4
0.959,   4.526e-4
0.961,   4.187e-4
0.963,   4.436e-4
0.965,   4.116e-4
0.967,   4.306e-4
0.969,   4.241e-4
0.971,   4.246e-4
0.973,   4.372e-4
0.975,   4.203e-4
0.977,   4.325e-4
0.979,   4.118e-4
0.981,   4.264e-4
0.983,   4.091e-4
0.985,   4.198e-4
0.987,   4.244e-4
0.989,   4.231e-4
0.991,   4.270e-4
0.993,   4.136e-4
0.995,   4.199e-4
0.997,   4.102e-4
0.999,   4.139e-4
1.001,   4.174e-4
1.003,   4.154e-4
1.005,   4.250e-4
1.007,   4.084e-4
1.009,   4.148e-4
1.011,   4.089e-4
1.013,   4.092e-4
1.015,   4.165e-4
1.017,   4.138e-4
1.019,   4.339e-4
1.021,   4.043e-4
1.023,   4.280e-4
1.025,   4.046e-4
1.027,   4.115e-4
1.029,   4.091e-4
1.031,   4.110e-4
1.033,   4.219e-4
1.035,   4.108e-4
1.037,   4.229e-4
1.039,   4.089e-4
1.041,   4.114e-4
1.043,   4.186e-4
1.045,   4.102e-4
1.047,   4.204e-4
1.049,   4.100e-4
1.051,   4.303e-4
1.053,   4.094e-4
1.055,   4.195e-4
1.057,   4.101e-4
1.059,   4.151e-4
1.061,   4.160e-4
1.063,   4.166e-4
1.065,   4.235e-4
1.067,   4.168e-4
1.069,   4.198e-4
1.071,   4.186e-4
1.073,   4.164e-4
1.075,   4.268e-4
1.077,   4.222e-4
1.079,   4.288e-4
1.081,   4.248e-4
1.083,   4.268e-4
1.085,   4.212e-4
1.087,   4.268e-4
1.089,   4.253e-4
1.091,   4.245e-4
1.093,   4.367e-4
1.095,   4.292e-4
1.097,   4.502e-4
1.099,   4.123e-4
1.101,   4.330e-4
1.103,   4.419e-4
1.105,   4.275e-4
1.107,   4.454e-4
1.109,   4.301e-4
1.111,   4.551e-4
1.113,   4.373e-4
1.115,   4.476e-4
1.117,   4.396e-4
1.119,   4.384e-4
1.121,   4.492e-4
1.123,   4.330e-4
1.125,   4.657e-4
1.127,   4.407e-4
1.129,   4.693e-4
1.131,   4.459e-4
1.133,   4.458e-4
1.135,   4.703e-4
1.137,   4.422e-4
1.139,   4.766e-4
1.141,   4.495e-4
1.143,   4.804e-4
1.145,   4.607e-4
1.147,   4.609e-4
1.149,   4.764e-4
1.151,   4.518e-4
1.153,   4.799e-4
1.155,   4.575e-4
1.157,   4.837e-4
1.159,   4.661e-4
1.161,   4.777e-4
1.163,   4.813e-4
1.165,   4.663e-4
1.167,   4.888e-4
1.169,   4.720e-4
1.171,   4.935e-4
1.173,   4.905e-4
1.175,   4.866e-4
1.177,   5.047e-4
1.179,   4.671e-4
1.181,   4.973e-4
1.183,   4.856e-4
1.185,   4.878e-4
1.187,   5.015e-4
1.189,   5.051e-4
1.191,   5.095e-4
1.193,   4.966e-4
1.195,   5.043e-4
1.197,   4.993e-4
1.199,   5.150e-4
1.201,   5.122e-4
1.203,   5.134e-4
1.205,   5.253e-4
1.207,   5.112e-4
1.209,   5.093e-4
1.211,   5.106e-4
1.213,   5.267e-4
1.215,   5.204e-4
1.217,   5.287e-4
1.219,   5.452e-4
1.221,   5.224e-4
1.223,   5.355e-4
1.225,   5.239e-4
1.227,   5.297e-4
1.229,   5.412e-4
1.231,   5.189e-4
1.233,   5.609e-4
1.235,   5.331e-4
1.237,   5.499e-4
1.239,   5.425e-4
1.241,   5.414e-4
1.243,   5.549e-4
1.245,   5.432e-4
1.247,   5.696e-4
1.249,   5.524e-4
1.251,   5.655e-4
1.253,   5.549e-4
1.255,   5.624e-4
1.257,   5.544e-4
1.259,   5.527e-4
1.261,   5.910e-4
1.263,   5.547e-4
1.265,   5.809e-4
1.267,   5.690e-4
1.269,   5.564e-4
1.271,   5.830e-4
1.273,   5.527e-4
1.275,   6.006e-4
1.277,   5.692e-4
1.279,   5.922e-4
1.281,   5.900e-4
1.283,   5.889e-4
1.285,   5.995e-4
1.287,   5.725e-4
1.289,   6.147e-4
1.291,   5.753e-4
1.293,   6.210e-4
1.295,   6.039e-4
1.297,   6.030e-4
1.299,   6.207e-4
1.301,   5.929e-4
1.303,   6.282e-4
1.305,   5.789e-4
1.307,   6.408e-4
1.309,   6.080e-4
1.311,   6.313e-4
1.313,   6.348e-4
1.315,   6.086e-4
1.317,   6.434e-4
1.319,   6.041e-4
1.321,   6.685e-4
1.323,   6.212e-4
1.325,   6.782e-4
1.327,   6.500e-4
1.329,   6.556e-4
1.331,   6.680e-4
1.333,   6.434e-4
1.335,   7.002e-4
1.337,   6.422e-4
1.339,   7.126e-4
1.341,   6.710e-4
1.343,   7.023e-4
1.345,   6.983e-4
1.347,   6.790e-4
1.349,   7.328e-4
1.351,   6.858e-4
1.353,   7.569e-4
1.355,   7.060e-4
1.357,   7.483e-4
1.359,   7.457e-4
1.361,   7.340e-4
1.363,   7.903e-4
1.365,   7.441e-4
1.367,   8.109e-4
1.369,   7.606e-4
1.371,   8.130e-4
1.373,   8.134e-4
1.375,   8.075e-4
1.377,   8.649e-4
1.379,   8.193e-4
1.381,   8.987e-4
1.383,   8.498e-4
1.385,   9.219e-4
1.387,   8.970e-4
1.389,   9.487e-4
1.391,   9.519e-4
1.393,   9.770e-4
1.395,   1.066e-3
1.397,   1.005e-3
1.399,   1.142e-3
1.401,   1.084e-3
1.403,   1.191e-3
1.405,   1.193e-3
1.407,   1.277e-3
1.409,   1.392e-3
1.411,   1.369e-3
1.413,   1.569e-3
1.415,   1.531e-3
1.417,   1.758e-3
1.419,   1.774e-3
1.421,   1.950e-3
1.423,   2.102e-3
1.425,   2.236e-3
1.427,   2.479e-3
1.429,   2.589e-3
1.431,   2.932e-3
1.433,   3.063e-3
1.435,   3.471e-3
1.437,   3.701e-3
1.439,   4.041e-3
1.441,   4.592e-3
1.443,   4.858e-3
1.445,   5.611e-3
1.447,   5.767e-3
1.449,   6.567e-3
1.451,   7.034e-3
1.453,   7.664e-3
1.455,   8.375e-3
1.457,   8.902e-3
1.459,   9.635e-3
1.461,   1.000e-2
1.463,   1.007e-2
1.465,   1.007e-2
1.467,   1.007e-2
1.469,   1.007e-2
1.471,   1.007e-2
1.473,   1.007e-2
1.475,   1.007e-2
1.477,   1.007e-2
1.479,   1.007e-2
1.481,   1.007e-2

File: B5_BEST_400_#1_Full(#14)-246mV.txt
May 31, 2023   15:24:05
Linear Sweep Voltammetry
File: d:\current work\al_oer\electrochemical test data\batch 5\400\B5_BEST_400_#1_Full(#14)-246mV.txt
Data Source:  Experiment
Instrument Model:  CHI660E
Header:
Note:

Init E (V) = 0.896

Final E (V) = 1.553

Scan Rate (V/s) = 0.010
Sample Interval (V) = 0.001
Quiet Time (sec) = 2
Sensitivity (A/V) = 0.001
Comp R (ohm) = 6.0

Results:

Channel 1:

Potential/V, Current/A
0.896,   1.324e-4
0.899,   1.427e-4
0.902,   1.414e-4
0.905,   1.357e-4
0.908,   1.359e-4
0.911,   1.335e-4
0.914,   1.295e-4
0.917,   1.290e-4
0.920,   1.252e-4
0.923,   1.248e-4
0.926,   1.250e-4
0.929,   1.196e-4
0.932,   1.209e-4
0.935,   1.202e-4
0.938,   1.154e-4
0.941,   1.166e-4
0.944,   1.148e-4
0.947,   1.128e-4
0.950,   1.128e-4
0.953,   1.102e-4
0.956,   1.105e-4
0.959,   1.110e-4
0.962,   1.069e-4
0.965,   1.083e-4
0.968,   1.080e-4
0.971,   1.042e-4
0.974,   1.064e-4
0.977,   1.054e-4
0.980,   1.029e-4
0.983,   1.038e-4
0.986,   1.014e-4
0.989,   1.020e-4
0.992,   1.028e-4
0.995,   9.941e-5
0.998,   1.015e-4
1.001,   1.017e-4
1.004,   9.781e-5
1.007,   9.990e-5
1.010,   9.970e-5
1.013,   9.743e-5
1.016,   9.848e-5
1.019,   9.681e-5
1.022,   9.746e-5
1.025,   9.796e-5
1.028,   9.457e-5
1.031,   9.725e-5
1.034,   9.784e-5
1.037,   9.449e-5
1.040,   9.640e-5
1.043,   9.649e-5
1.046,   9.443e-5
1.049,   9.536e-5
1.052,   9.431e-5
1.055,   9.473e-5
1.058,   9.561e-5
1.061,   9.271e-5
1.064,   9.530e-5
1.067,   9.605e-5
1.070,   9.275e-5
1.073,   9.520e-5
1.076,   9.557e-5
1.079,   9.295e-5
1.082,   9.509e-5
1.085,   9.383e-5
1.088,   9.415e-5
1.091,   9.546e-5
1.094,   9.324e-5
1.097,   9.510e-5
1.100,   9.688e-5
1.103,   9.320e-5
1.106,   9.640e-5
1.109,   9.679e-5
1.112,   9.447e-5
1.115,   9.628e-5
1.118,   9.560e-5
1.121,   9.547e-5
1.124,   9.707e-5
1.127,   9.464e-5
1.130,   9.735e-5
1.133,   9.869e-5
1.136,   9.520e-5
1.139,   9.873e-5
1.142,   9.978e-5
1.145,   9.658e-5
1.148,   9.921e-5
1.151,   9.872e-5
1.154,   9.853e-5
1.157,   1.001e-4
1.160,   9.789e-5
1.163,   1.008e-4
1.166,   1.019e-4
1.169,   9.847e-5
1.172,   1.021e-4
1.175,   1.029e-4
1.178,   1.004e-4
1.181,   1.026e-4
1.184,   1.020e-4
1.187,   1.020e-4
1.190,   1.034e-4
1.193,   1.011e-4
1.196,   1.037e-4
1.199,   1.043e-4
1.202,   1.016e-4
1.205,   1.053e-4
1.208,   1.066e-4
1.211,   1.030e-4
1.214,   1.070e-4
1.217,   1.056e-4
1.220,   1.048e-4
1.223,   1.075e-4
1.226,   1.040e-4
1.229,   1.073e-4
1.232,   1.089e-4
1.235,   1.053e-4
1.238,   1.088e-4
1.241,   1.103e-4
1.244,   1.067e-4
1.247,   1.100e-4
1.250,   1.107e-4
1.253,   1.086e-4
1.256,   1.106e-4
1.259,   1.087e-4
1.262,   1.111e-4
1.265,   1.119e-4
1.268,   1.085e-4
1.271,   1.125e-4
1.274,   1.140e-4
1.277,   1.099e-4
1.280,   1.131e-4
1.283,   1.149e-4
1.286,   1.126e-4
1.289,   1.148e-4
1.292,   1.136e-4
1.295,   1.149e-4
1.298,   1.173e-4
1.301,   1.138e-4
1.304,   1.175e-4
1.307,   1.192e-4
1.310,   1.155e-4
1.313,   1.187e-4
1.316,   1.206e-4
1.319,   1.183e-4
1.322,   1.205e-4
1.325,   1.207e-4
1.328,   1.215e-4
1.331,   1.239e-4
1.334,   1.208e-4
1.337,   1.252e-4
1.340,   1.279e-4
1.343,   1.237e-4
1.346,   1.283e-4
1.349,   1.301e-4
1.352,   1.281e-4
1.355,   1.316e-4
1.358,   1.319e-4
1.361,   1.334e-4
1.364,   1.363e-4
1.367,   1.326e-4
1.370,   1.394e-4
1.373,   1.432e-4
1.376,   1.396e-4
1.379,   1.464e-4
1.382,   1.490e-4
1.385,   1.486e-4
1.388,   1.542e-4
1.391,   1.565e-4
1.394,   1.590e-4
1.397,   1.667e-4
1.400,   1.676e-4
1.403,   1.771e-4
1.406,   1.856e-4
1.409,   1.864e-4
1.412,   2.019e-4
1.415,   2.145e-4
1.418,   2.211e-4
1.421,   2.404e-4
1.424,   2.572e-4
1.427,   2.800e-4
1.430,   3.088e-4
1.433,   3.291e-4
1.436,   3.760e-4
1.439,   4.259e-4
1.442,   4.532e-4
1.445,   5.282e-4
1.448,   5.992e-4
1.451,   6.541e-4
1.454,   7.608e-4
1.457,   8.527e-4
1.460,   9.695e-4
1.463,   1.119e-3
1.466,   1.217e-3
1.469,   1.433e-3
1.472,   1.638e-3
1.475,   1.761e-3
1.478,   2.058e-3
1.481,   2.310e-3
1.484,   2.496e-3
1.487,   2.826e-3
1.490,   3.100e-3
1.493,   3.427e-3
1.496,   3.781e-3
1.499,   3.952e-3
1.502,   4.513e-3
1.505,   4.893e-3
1.508,   5.187e-3
1.511,   5.757e-3
1.514,   6.253e-3
1.517,   6.548e-3
1.520,   7.129e-3
1.523,   7.473e-3
1.526,   7.992e-3
1.529,   8.361e-3
1.532,   8.568e-3
1.535,   9.248e-3
1.538,   9.557e-3
1.541,   9.514e-3
1.544,   9.875e-3
1.547,   9.877e-3
1.550,   9.996e-3
1.553,   1.004e-2