Folder: DASH/Experimental Records and Raw Data/batch5/final500 (part 4)

File: B5_BEST_500_#1_High_Quality(#24)-195mV.txt
June 9, 2023   14:49:33
Linear Sweep Voltammetry
File: d:\current work\al_oer\electrochemical test data\batch 5\500\B5_BEST_500_#1_High_Quality(#24)-195mV.txt
Data Source:  Experiment
Instrument Model:  CHI660E
Header:
Note:

Init E (V) = 0.893

Final E (V) = 1.493

Scan Rate (V/s) = 0.010
Sample Interval (V) = 0.001
Quiet Time (sec) = 2
Sensitivity (A/V) = 0.001
Comp R (ohm) = 4.0

Results:

Channel 1:

Potential/V, Current/A
0.893,   1.457e-4
0.896,   3.501e-4
0.899,   3.426e-4
0.902,   3.306e-4
0.905,   3.618e-4
0.908,   3.434e-4
0.911,   3.376e-4
0.914,   3.537e-4
0.917,   3.566e-4
0.920,   3.479e-4
0.923,   3.446e-4
0.926,   3.687e-4
0.929,   3.491e-4
0.932,   3.439e-4
0.935,   3.766e-4
0.938,   3.551e-4
0.941,   3.504e-4
0.944,   3.594e-4
0.947,   3.653e-4
0.950,   3.569e-4
0.953,   3.582e-4
0.956,   3.760e-4
0.959,   3.613e-4
0.962,   3.529e-4
0.965,   3.832e-4
0.968,   3.672e-4
0.971,   3.593e-4
0.974,   3.698e-4
0.977,   3.820e-4
0.980,   3.652e-4
0.983,   3.669e-4
0.986,   3.939e-4
0.989,   3.752e-4
0.992,   3.707e-4
0.995,   3.919e-4
0.998,   3.788e-4
1.001,   3.759e-4
1.004,   3.848e-4
1.007,   4.036e-4
1.010,   3.842e-4
1.013,   3.829e-4
1.016,   4.115e-4
1.019,   3.907e-4
1.022,   3.851e-4
1.025,   4.044e-4
1.028,   3.948e-4
1.031,   3.967e-4
1.034,   3.953e-4
1.037,   4.139e-4
1.040,   4.096e-4
1.043,   3.959e-4
1.046,   4.252e-4
1.049,   4.109e-4
1.052,   4.098e-4
1.055,   4.193e-4
1.058,   4.210e-4
1.061,   4.114e-4
1.064,   4.086e-4
1.067,   4.407e-4
1.070,   4.229e-4
1.073,   4.122e-4
1.076,   4.429e-4
1.079,   4.272e-4
1.082,   4.269e-4
1.085,   4.381e-4
1.088,   4.415e-4
1.091,   4.448e-4
1.094,   4.380e-4
1.097,   4.606e-4
1.100,   4.410e-4
1.103,   4.359e-4
1.106,   4.653e-4
1.109,   4.525e-4
1.112,   4.489e-4
1.115,   4.618e-4
1.118,   4.720e-4
1.121,   4.654e-4
1.124,   4.552e-4
1.127,   4.898e-4
1.130,   4.797e-4
1.133,   4.650e-4
1.136,   4.938e-4
1.139,   4.876e-4
1.142,   4.831e-4
1.145,   4.920e-4
1.148,   5.058e-4
1.151,   5.008e-4
1.154,   4.901e-4
1.157,   5.186e-4
1.160,   5.091e-4
1.163,   5.004e-4
1.166,   5.323e-4
1.169,   5.168e-4
1.172,   5.154e-4
1.175,   5.162e-4
1.178,   5.401e-4
1.181,   5.352e-4
1.184,   5.213e-4
1.187,   5.604e-4
1.190,   5.429e-4
1.193,   5.330e-4
1.196,   5.671e-4
1.199,   5.562e-4
1.202,   5.463e-4
1.205,   5.610e-4
1.208,   5.926e-4
1.211,   5.711e-4
1.214,   5.620e-4
1.217,   6.151e-4
1.220,   5.784e-4
1.223,   5.634e-4
1.226,   6.002e-4
1.229,   6.115e-4
1.232,   5.953e-4
1.235,   5.967e-4
1.238,   6.352e-4
1.241,   5.851e-4
1.244,   6.634e-4
1.247,   5.962e-4
1.250,   6.889e-4
1.253,   6.100e-4
1.256,   6.936e-4
1.259,   6.233e-4
1.262,   6.837e-4
1.265,   6.296e-4
1.268,   6.760e-4
1.271,   6.588e-4
1.274,   6.701e-4
1.277,   6.557e-4
1.280,   6.620e-4
1.283,   6.853e-4
1.286,   6.632e-4
1.289,   7.023e-4
1.292,   6.689e-4
1.295,   7.314e-4
1.298,   6.829e-4
1.301,   7.615e-4
1.304,   6.943e-4
1.307,   7.836e-4
1.310,   6.988e-4
1.313,   8.030e-4
1.316,   7.290e-4
1.319,   7.874e-4
1.322,   7.425e-4
1.325,   7.949e-4
1.328,   7.505e-4
1.331,   7.878e-4
1.334,   7.686e-4
1.337,   7.848e-4
1.340,   7.777e-4
1.343,   7.846e-4
1.346,   8.157e-4
1.349,   7.846e-4
1.352,   8.462e-4
1.355,   7.825e-4
1.358,   8.755e-4
1.361,   8.126e-4
1.364,   9.272e-4
1.367,   8.298e-4
1.370,   9.493e-4
1.373,   8.511e-4
1.376,   9.776e-4
1.379,   9.296e-4
1.382,   1.017e-3
1.385,   9.604e-4
1.388,   1.043e-3
1.391,   1.004e-3
1.394,   1.066e-3
1.397,   1.044e-3
1.400,   1.111e-3
1.403,   1.153e-3
1.406,   1.151e-3
1.409,   1.288e-3
1.412,   1.274e-3
1.415,   1.440e-3
1.418,   1.453e-3
1.421,   1.688e-3
1.424,   1.755e-3
1.427,   2.026e-3
1.430,   2.104e-3
1.433,   2.513e-3
1.436,   2.708e-3
1.439,   3.195e-3
1.442,   3.548e-3
1.445,   4.073e-3
1.448,   4.677e-3
1.451,   5.272e-3
1.454,   5.888e-3
1.457,   6.642e-3
1.460,   7.506e-3
1.463,   7.792e-3
1.466,   8.954e-3
1.469,   9.221e-3
1.472,   9.610e-3
1.475,   9.937e-3
1.478,   1.007e-2
1.481,   1.007e-2
1.484,   1.007e-2
1.487,   1.007e-2
1.490,   1.007e-2
1.493,   1.007e-2

File: B5_BEST_500_#1_High_Quality(#26)-220mV.txt
June 9, 2023   11:05:11
Linear Sweep Voltammetry
File: d:\current work\al_oer\electrochemical test data\batch 5\500\B5_BEST_500_#1_High_Quality(#26)-220mV.txt
Data Source:  Experiment
Instrument Model:  CHI660E
Header:
Note:

Init E (V) = 0.892

Final E (V) = 1.505

Scan Rate (V/s) = 0.010
Sample Interval (V) = 0.001
Quiet Time (sec) = 2
Sensitivity (A/V) = 0.001
Comp R (ohm) = 4.5

Results:

Channel 1:

Potential/V, Current/A
0.892,   2.634e-4
0.895,   3.135e-4
0.898,   3.039e-4
0.901,   3.069e-4
0.904,   3.021e-4
0.907,   2.905e-4
0.910,   2.962e-4
0.913,   2.831e-4
0.916,   2.847e-4
0.919,   2.855e-4
0.922,   2.739e-4
0.925,   2.854e-4
0.928,   2.683e-4
0.931,   2.674e-4
0.934,   2.693e-4
0.937,   2.696e-4
0.940,   2.699e-4
0.943,   2.600e-4
0.946,   2.569e-4
0.949,   2.632e-4
0.952,   2.501e-4
0.955,   2.572e-4
0.958,   2.521e-4
0.961,   2.463e-4
0.964,   2.547e-4
0.967,   2.401e-4
0.970,   2.453e-4
0.973,   2.417e-4
0.976,   2.388e-4
0.979,   2.432e-4
0.982,   2.372e-4
0.985,   2.381e-4
0.988,   2.295e-4
0.991,   2.341e-4
0.994,   2.383e-4
0.997,   2.294e-4
1.000,   2.292e-4
1.003,   2.284e-4
1.006,   2.306e-4
1.009,   2.372e-4
1.012,   2.248e-4
1.015,   2.244e-4
1.018,   2.244e-4
1.021,   2.267e-4
1.024,   2.342e-4
1.027,   2.190e-4
1.030,   2.214e-4
1.033,   2.215e-4
1.036,   2.215e-4
1.039,   2.303e-4
1.042,   2.163e-4
1.045,   2.178e-4
1.048,   2.199e-4
1.051,   2.229e-4
1.054,   2.266e-4
1.057,   2.118e-4
1.060,   2.140e-4
1.063,   2.213e-4
1.066,   2.220e-4
1.069,   2.242e-4
1.072,   2.092e-4
1.075,   2.134e-4
1.078,   2.249e-4
1.081,   2.170e-4
1.084,   2.185e-4
1.087,   2.107e-4
1.090,   2.131e-4
1.093,   2.251e-4
1.096,   2.144e-4
1.099,   2.145e-4
1.102,   2.168e-4
1.105,   2.163e-4
1.108,   2.246e-4
1.111,   2.154e-4
1.114,   2.190e-4
1.117,   2.164e-4
1.120,   2.137e-4
1.123,   2.311e-4
1.126,   2.146e-4
1.129,   2.154e-4
1.132,   2.239e-4
1.135,   2.101e-4
1.138,   2.370e-4
1.141,   2.186e-4
1.144,   2.165e-4
1.147,   2.275e-4
1.150,   2.138e-4
1.153,   2.363e-4
1.156,   2.221e-4
1.159,   2.164e-4
1.162,   2.356e-4
1.165,   2.154e-4
1.168,   2.405e-4
1.171,   2.251e-4
1.174,   2.170e-4
1.177,   2.419e-4
1.180,   2.235e-4
1.183,   2.351e-4
1.186,   2.314e-4
1.189,   2.290e-4
1.192,   2.495e-4
1.195,   2.330e-4
1.198,   2.367e-4
1.201,   2.379e-4
1.204,   2.343e-4
1.207,   2.559e-4
1.210,   2.334e-4
1.213,   2.391e-4
1.216,   2.457e-4
1.219,   2.396e-4
1.222,   2.651e-4
1.225,   2.429e-4
1.228,   2.421e-4
1.231,   2.577e-4
1.234,   2.508e-4
1.237,   2.648e-4
1.240,   2.469e-4
1.243,   2.494e-4
1.246,   2.665e-4
1.249,   2.489e-4
1.252,   2.776e-4
1.255,   2.568e-4
1.258,   2.561e-4
1.261,   2.788e-4
1.264,   2.578e-4
1.267,   2.794e-4
1.270,   2.670e-4
1.273,   2.540e-4
1.276,   2.967e-4
1.279,   2.688e-4
1.282,   2.734e-4
1.285,   2.817e-4
1.288,   2.685e-4
1.291,   2.993e-4
1.294,   2.754e-4
1.297,   2.768e-4
1.300,   2.988e-4
1.303,   2.724e-4
1.306,   3.085e-4
1.309,   2.848e-4
1.312,   2.818e-4
1.315,   3.083e-4
1.318,   2.679e-4
1.321,   3.255e-4
1.324,   2.940e-4
1.327,   2.945e-4
1.330,   3.272e-4
1.333,   2.886e-4
1.336,   3.360e-4
1.339,   3.031e-4
1.342,   3.100e-4
1.345,   3.334e-4
1.348,   3.000e-4
1.351,   3.537e-4
1.354,   3.321e-4
1.357,   3.160e-4
1.360,   3.497e-4
1.363,   3.223e-4
1.366,   3.582e-4
1.369,   3.625e-4
1.372,   3.443e-4
1.375,   3.891e-4
1.378,   3.654e-4
1.381,   3.824e-4
1.384,   4.057e-4
1.387,   3.788e-4
1.390,   4.231e-4
1.393,   4.210e-4
1.396,   4.269e-4
1.399,   4.752e-4
1.402,   4.585e-4
1.405,   4.875e-4
1.408,   5.155e-4
1.411,   5.289e-4
1.414,   5.944e-4
1.417,   5.936e-4
1.420,   6.359e-4
1.423,   6.810e-4
1.426,   8.998e-4
1.429,   7.928e-4
1.432,   8.330e-4
1.435,   1.026e-3
1.438,   1.119e-3
1.441,   1.374e-3
1.444,   1.471e-3
1.447,   1.672e-3
1.450,   2.183e-3
1.453,   2.166e-3
1.456,   2.571e-3
1.459,   3.263e-3
1.462,   3.470e-3
1.465,   4.621e-3
1.468,   4.885e-3
1.471,   6.261e-3
1.474,   6.748e-3
1.477,   7.400e-3
1.480,   8.605e-3
1.483,   8.683e-3
1.486,   9.490e-3
1.489,   9.805e-3
1.492,   9.871e-3
1.495,   1.007e-2
1.498,   1.007e-2
1.501,   1.007e-2
1.504,   1.007e-2
1.505,   1.007e-2

File: B5_BEST_500_#1_High_Quality(#27)-356mV.txt
June 9, 2023   16:13:33
Linear Sweep Voltammetry
File: d:\current work\al_oer\electrochemical test data\batch 5\500\B5_BEST_500_#1_High_Quality(#27)-356mV.txt
Data Source:  Experiment
Instrument Model:  CHI660E
Header:
Note:

Init E (V) = 0.890

Final E (V) = 1.618

Scan Rate (V/s) = 0.010
Sample Interval (V) = 0.001
Quiet Time (sec) = 2
Sensitivity (A/V) = 0.001
Comp R (ohm) = 5.5

Results:

Channel 1:

Potential/V, Current/A
0.890,   3.221e-5
0.893,   3.304e-5
0.896,   3.261e-5
0.899,   3.209e-5
0.902,   3.159e-5
0.905,   3.105e-5
0.908,   3.049e-5
0.911,   3.005e-5
0.914,   2.957e-5
0.917,   2.912e-5
0.920,   2.872e-5
0.923,   2.830e-5
0.926,   2.794e-5
0.929,   2.759e-5
0.932,   2.727e-5
0.935,   2.692e-5
0.938,   2.664e-5
0.941,   2.635e-5
0.944,   2.608e-5
0.947,   2.580e-5
0.950,   2.554e-5
0.953,   2.531e-5
0.956,   2.510e-5
0.959,   2.486e-5
0.962,   2.465e-5
0.965,   2.442e-5
0.968,   2.425e-5
0.971,   2.406e-5
0.974,   2.388e-5
0.977,   2.374e-5
0.980,   2.354e-5
0.983,   2.342e-5
0.986,   2.330e-5
0.989,   2.313e-5
0.992,   2.301e-5
0.995,   2.291e-5
0.998,   2.274e-5
1.001,   2.264e-5
1.004,   2.251e-5
1.007,   2.243e-5
1.010,   2.238e-5
1.013,   2.225e-5
1.016,   2.216e-5
1.019,   2.205e-5
1.022,   2.198e-5
1.025,   2.191e-5
1.028,   2.185e-5
1.031,   2.179e-5
1.034,   2.174e-5
1.037,   2.168e-5
1.040,   2.163e-5
1.043,   2.158e-5
1.046,   2.158e-5
1.049,   2.149e-5
1.052,   2.150e-5
1.055,   2.145e-5
1.058,   2.143e-5
1.061,   2.141e-5
1.064,   2.141e-5
1.067,   2.138e-5
1.070,   2.137e-5
1.073,   2.136e-5
1.076,   2.135e-5
1.079,   2.137e-5
1.082,   2.138e-5
1.085,   2.143e-5
1.088,   2.143e-5
1.091,   2.148e-5
1.094,   2.143e-5
1.097,   2.147e-5
1.100,   2.149e-5
1.103,   2.158e-5
1.106,   2.159e-5
1.109,   2.162e-5
1.112,   2.167e-5
1.115,   2.169e-5
1.118,   2.172e-5
1.121,   2.182e-5
1.124,   2.184e-5
1.127,   2.189e-5
1.130,   2.199e-5
1.133,   2.206e-5
1.136,   2.213e-5
1.139,   2.217e-5
1.142,   2.226e-5
1.145,   2.232e-5
1.148,   2.239e-5
1.151,   2.247e-5
1.154,   2.258e-5
1.157,   2.265e-5
1.160,   2.274e-5
1.163,   2.281e-5
1.166,   2.294e-5
1.169,   2.297e-5
1.172,   2.305e-5
1.175,   2.322e-5
1.178,   2.329e-5
1.181,   2.343e-5
1.184,   2.348e-5
1.187,   2.363e-5
1.190,   2.371e-5
1.193,   2.385e-5
1.196,   2.394e-5
1.199,   2.407e-5
1.202,   2.420e-5
1.205,   2.432e-5
1.208,   2.442e-5
1.211,   2.456e-5
1.214,   2.468e-5
1.217,   2.478e-5
1.220,   2.500e-5
1.223,   2.515e-5
1.226,   2.532e-5
1.229,   2.547e-5
1.232,   2.564e-5
1.235,   2.579e-5
1.238,   2.591e-5
1.241,   2.608e-5
1.244,   2.625e-5
1.247,   2.640e-5
1.250,   2.665e-5
1.253,   2.684e-5
1.256,   2.696e-5
1.259,   2.715e-5
1.262,   2.739e-5
1.265,   2.751e-5
1.268,   2.774e-5
1.271,   2.797e-5
1.274,   2.823e-5
1.277,   2.842e-5
1.280,   2.866e-5
1.283,   2.890e-5
1.286,   2.909e-5
1.289,   2.937e-5
1.292,   2.962e-5
1.295,   2.987e-5
1.298,   3.017e-5
1.301,   3.044e-5
1.304,   3.071e-5
1.307,   3.099e-5
1.310,   3.130e-5
1.313,   3.159e-5
1.316,   3.190e-5
1.319,   3.226e-5
1.322,   3.263e-5
1.325,   3.300e-5
1.328,   3.339e-5
1.331,   3.369e-5
1.334,   3.407e-5
1.337,   3.443e-5
1.340,   3.484e-5
1.343,   3.528e-5
1.346,   3.570e-5
1.349,   3.612e-5
1.352,   3.656e-5
1.355,   3.704e-5
1.358,   3.757e-5
1.361,   3.811e-5
1.364,   3.859e-5
1.367,   3.924e-5
1.370,   3.986e-5
1.373,   4.064e-5
1.376,   4.134e-5
1.379,   4.212e-5
1.382,   4.285e-5
1.385,   4.375e-5
1.388,   4.471e-5
1.391,   4.574e-5
1.394,   4.685e-5
1.397,   4.811e-5
1.400,   4.959e-5
1.403,   5.115e-5
1.406,   5.279e-5
1.409,   5.470e-5
1.412,   5.676e-5
1.415,   5.925e-5
1.418,   6.197e-5
1.421,   6.540e-5
1.424,   6.914e-5
1.427,   7.334e-5
1.430,   7.837e-5
1.433,   8.397e-5
1.436,   9.038e-5
1.439,   9.799e-5
1.442,   1.065e-4
1.445,   1.162e-4
1.448,   1.275e-4
1.451,   1.401e-4
1.454,   1.545e-4
1.457,   1.708e-4
1.460,   1.886e-4
1.463,   2.085e-4
1.466,   2.305e-4
1.469,   2.554e-4
1.472,   2.822e-4
1.475,   3.117e-4
1.478,   3.433e-4
1.481,   3.778e-4
1.484,   4.142e-4
1.487,   4.533e-4
1.490,   4.947e-4
1.493,   5.375e-4
1.496,   5.831e-4
1.499,   6.290e-4
1.502,   6.771e-4
1.505,   7.259e-4
1.508,   7.758e-4
1.511,   8.266e-4
1.514,   8.770e-4
1.517,   9.298e-4
1.520,   9.807e-4
1.523,   1.034e-3
1.526,   1.086e-3
1.529,   1.138e-3
1.532,   1.191e-3
1.535,   1.242e-3
1.538,   1.295e-3
1.541,   1.348e-3
1.544,   1.400e-3
1.547,   1.447e-3
1.550,   1.495e-3
1.553,   1.545e-3
1.556,   1.589e-3
1.559,   1.632e-3
1.562,   1.669e-3
1.565,   1.713e-3
1.568,   1.749e-3
1.571,   1.789e-3
1.574,   1.823e-3
1.577,   1.862e-3
1.580,   1.895e-3
1.583,   1.925e-3
1.586,   1.956e-3
1.589,   1.980e-3
1.592,   2.009e-3
1.595,   2.029e-3
1.598,   2.060e-3
1.601,   2.082e-3
1.604,   2.103e-3
1.607,   2.124e-3
1.610,   2.141e-3
1.613,   2.164e-3
1.616,   2.184e-3
1.618,   2.195e-3

File: B5_BEST_500_#1_High_Quality(#31)-213mV.txt
June 9, 2023   11:22:27
Linear Sweep Voltammetry
File: d:\current work\al_oer\electrochemical test data\batch 5\500\B5_BEST_500_#1_High_Quality(#31)-213mV.txt
Data Source:  Experiment
Instrument Model:  CHI660E
Header:
Note:

Init E (V) = 0.883

Final E (V) = 1.682

Scan Rate (V/s) = 0.010
Sample Interval (V) = 0.001
Quiet Time (sec) = 2
Sensitivity (A/V) = 0.001
Comp R (ohm) = 5.1

Results:

Channel 1:

Potential/V, Current/A
0.883,   2.368e-4
0.886,   2.668e-4
0.889,   2.662e-4
0.892,   2.623e-4
0.895,   2.568e-4
0.898,   2.517e-4
0.901,   2.462e-4
0.904,   2.419e-4
0.907,   2.371e-4
0.910,   2.322e-4
0.913,   2.279e-4
0.916,   2.234e-4
0.919,   2.190e-4
0.922,   2.155e-4
0.925,   2.124e-4
0.928,   2.098e-4
0.931,   2.073e-4
0.934,   2.051e-4
0.937,   2.026e-4
0.940,   2.007e-4
0.943,   1.988e-4
0.946,   1.970e-4
0.949,   1.959e-4
0.952,   1.934e-4
0.955,   1.921e-4
0.958,   1.910e-4
0.961,   1.896e-4
0.964,   1.885e-4
0.967,   1.869e-4
0.970,   1.849e-4
0.973,   1.839e-4
0.976,   1.826e-4
0.979,   1.815e-4
0.982,   1.801e-4
0.985,   1.783e-4
0.988,   1.768e-4
0.991,   1.757e-4
0.994,   1.759e-4
0.997,   1.737e-4
1.000,   1.732e-4
1.003,   1.727e-4
1.006,   1.718e-4
1.009,   1.718e-4
1.012,   1.708e-4
1.015,   1.707e-4
1.018,   1.704e-4
1.021,   1.700e-4
1.024,   1.702e-4
1.027,   1.698e-4
1.030,   1.697e-4
1.033,   1.697e-4
1.036,   1.697e-4
1.039,   1.695e-4
1.042,   1.691e-4
1.045,   1.688e-4
1.048,   1.688e-4
1.051,   1.680e-4
1.054,   1.679e-4
1.057,   1.672e-4
1.060,   1.670e-4
1.063,   1.674e-4
1.066,   1.677e-4
1.069,   1.678e-4
1.072,   1.679e-4
1.075,   1.683e-4
1.078,   1.700e-4
1.081,   1.701e-4
1.084,   1.704e-4
1.087,   1.705e-4
1.090,   1.712e-4
1.093,   1.704e-4
1.096,   1.722e-4
1.099,   1.728e-4
1.102,   1.732e-4
1.105,   1.739e-4
1.108,   1.751e-4
1.111,   1.752e-4
1.114,   1.767e-4
1.117,   1.775e-4
1.120,   1.781e-4
1.123,   1.794e-4
1.126,   1.807e-4
1.129,   1.809e-4
1.132,   1.812e-4
1.135,   1.823e-4
1.138,   1.823e-4
1.141,   1.824e-4
1.144,   1.834e-4
1.147,   1.838e-4
1.150,   1.843e-4
1.153,   1.854e-4
1.156,   1.855e-4
1.159,   1.873e-4
1.162,   1.868e-4
1.165,   1.890e-4
1.168,   1.890e-4
1.171,   1.900e-4
1.174,   1.914e-4
1.177,   1.925e-4
1.180,   1.926e-4
1.183,   1.938e-4
1.186,   1.957e-4
1.189,   1.965e-4
1.192,   1.994e-4
1.195,   2.012e-4
1.198,   2.025e-4
1.201,   2.028e-4
1.204,   2.049e-4
1.207,   2.067e-4
1.210,   2.076e-4
1.213,   2.102e-4
1.216,   2.110e-4
1.219,   2.112e-4
1.222,   2.135e-4
1.225,   2.154e-4
1.228,   2.168e-4
1.231,   2.190e-4
1.234,   2.207e-4
1.237,   2.222e-4
1.240,   2.233e-4
1.243,   2.260e-4
1.246,   2.264e-4
1.249,   2.293e-4
1.252,   2.312e-4
1.255,   2.328e-4
1.258,   2.353e-4
1.261,   2.372e-4
1.264,   2.404e-4
1.267,   2.410e-4
1.270,   2.439e-4
1.273,   2.447e-4
1.276,   2.482e-4
1.279,   2.490e-4
1.282,   2.546e-4
1.285,   2.567e-4
1.288,   2.599e-4
1.291,   2.622e-4
1.294,   2.671e-4
1.297,   2.680e-4
1.300,   2.710e-4
1.303,   2.738e-4
1.306,   2.764e-4
1.309,   2.789e-4
1.312,   2.813e-4
1.315,   2.845e-4
1.318,   2.861e-4
1.321,   2.897e-4
1.324,   2.932e-4
1.327,   2.981e-4
1.330,   3.024e-4
1.333,   3.076e-4
1.336,   3.096e-4
1.339,   3.133e-4
1.342,   3.192e-4
1.345,   3.252e-4
1.348,   3.312e-4
1.351,   3.380e-4
1.354,   3.452e-4
1.357,   3.525e-4
1.360,   3.623e-4
1.363,   3.729e-4
1.366,   3.833e-4
1.369,   3.943e-4
1.372,   4.091e-4
1.375,   4.205e-4
1.378,   4.362e-4
1.381,   4.517e-4
1.384,   4.714e-4
1.387,   4.924e-4
1.390,   5.155e-4
1.393,   5.403e-4
1.396,   5.673e-4
1.399,   5.976e-4
1.402,   6.305e-4
1.405,   6.645e-4
1.408,   7.044e-4
1.411,   7.474e-4
1.414,   7.995e-4
1.417,   8.535e-4
1.420,   9.235e-4
1.423,   9.981e-4
1.426,   1.091e-3
1.429,   1.193e-3
1.432,   1.312e-3
1.435,   1.450e-3
1.438,   1.591e-3
1.441,   1.748e-3
1.444,   1.942e-3
1.447,   2.141e-3
1.450,   2.381e-3
1.453,   2.628e-3
1.456,   2.911e-3
1.459,   3.206e-3
1.462,   3.538e-3
1.465,   3.891e-3
1.468,   4.274e-3
1.471,   4.625e-3
1.474,   4.959e-3
1.477,   5.425e-3
1.480,   5.820e-3
1.483,   6.231e-3
1.486,   6.721e-3
1.489,   7.066e-3
1.492,   7.629e-3
1.495,   7.945e-3
1.498,   8.589e-3
1.501,   8.829e-3
1.504,   9.365e-3
1.507,   9.708e-3
1.510,   9.952e-3
1.513,   1.003e-2
1.516,   1.005e-2
1.519,   1.007e-2
1.522,   1.007e-2
1.525,   1.004e-2
1.528,   9.924e-3
1.531,   1.007e-2
1.534,   1.007e-2
1.537,   1.007e-2
1.540,   1.007e-2
1.543,   1.007e-2
1.546,   1.002e-2
1.549,   9.767e-3
1.552,   1.007e-2
1.555,   1.007e-2
1.558,   1.007e-2
1.561,   1.007e-2
1.564,   1.007e-2
1.567,   1.007e-2
1.570,   1.007e-2
1.573,   1.007e-2
1.576,   1.007e-2
1.579,   1.007e-2
1.582,   1.007e-2
1.585,   1.007e-2
1.588,   1.007e-2
1.591,   1.007e-2
1.594,   1.007e-2
1.597,   1.007e-2
1.600,   1.007e-2
1.603,   1.007e-2
1.606,   1.007e-2
1.609,   1.007e-2
1.612,   1.007e-2
1.615,   1.007e-2
1.618,   1.007e-2
1.621,   1.007e-2
1.624,   1.007e-2
1.627,   1.007e-2
1.630,   1.007e-2
1.633,   1.007e-2
1.636,   1.007e-2
1.639,   1.007e-2
1.642,   1.007e-2
1.645,   1.007e-2
1.648,   1.007e-2
1.651,   1.007e-2
1.654,   1.007e-2
1.657,   1.007e-2
1.660,   1.007e-2
1.663,   1.007e-2
1.666,   1.007e-2
1.669,   1.007e-2
1.672,   1.007e-2
1.675,   1.007e-2
1.678,   1.007e-2
1.681,   1.007e-2
1.682,   1.007e-2