Folder: DASH/Experimental Records and Raw Data/batch5/final500 (part 2)

File: B5_BEST_500_#1_Full(#9)-264mV.txt
June 8, 2023   21:06:57
Linear Sweep Voltammetry
File: d:\current work\al_oer\electrochemical test data\batch 5\500\B5_BEST_500_#1_Full(#9)-264mV.txt
Data Source:  Experiment
Instrument Model:  CHI660E
Header:
Note:

Init E (V) = 0.894

Final E (V) = 1.596

Scan Rate (V/s) = 0.010
Sample Interval (V) = 0.001
Quiet Time (sec) = 2
Sensitivity (A/V) = 0.001
Comp R (ohm) = 5.1

Results:

Channel 1:

Potential/V, Current/A
0.894,   4.858e-5
0.897,   5.216e-5
0.900,   5.125e-5
0.903,   4.998e-5
0.906,   4.921e-5
0.909,   4.821e-5
0.912,   4.778e-5
0.915,   4.653e-5
0.918,   4.592e-5
0.921,   4.508e-5
0.924,   4.439e-5
0.927,   4.370e-5
0.930,   4.300e-5
0.933,   4.258e-5
0.936,   4.191e-5
0.939,   4.144e-5
0.942,   4.095e-5
0.945,   4.050e-5
0.948,   4.010e-5
0.951,   3.944e-5
0.954,   3.921e-5
0.957,   3.878e-5
0.960,   3.850e-5
0.963,   3.805e-5
0.966,   3.796e-5
0.969,   3.747e-5
0.972,   3.731e-5
0.975,   3.697e-5
0.978,   3.653e-5
0.981,   3.653e-5
0.984,   3.606e-5
0.987,   3.584e-5
0.990,   3.568e-5
0.993,   3.569e-5
0.996,   3.534e-5
0.999,   3.511e-5
1.002,   3.496e-5
1.005,   3.475e-5
1.008,   3.463e-5
1.011,   3.439e-5
1.014,   3.433e-5
1.017,   3.410e-5
1.020,   3.411e-5
1.023,   3.390e-5
1.026,   3.368e-5
1.029,   3.368e-5
1.032,   3.332e-5
1.035,   3.348e-5
1.038,   3.336e-5
1.041,   3.348e-5
1.044,   3.326e-5
1.047,   3.316e-5
1.050,   3.314e-5
1.053,   3.302e-5
1.056,   3.305e-5
1.059,   3.292e-5
1.062,   3.300e-5
1.065,   3.293e-5
1.068,   3.301e-5
1.071,   3.285e-5
1.074,   3.296e-5
1.077,   3.283e-5
1.080,   3.286e-5
1.083,   3.296e-5
1.086,   3.290e-5
1.089,   3.309e-5
1.092,   3.307e-5
1.095,   3.311e-5
1.098,   3.309e-5
1.101,   3.324e-5
1.104,   3.323e-5
1.107,   3.304e-5
1.110,   3.355e-5
1.113,   3.351e-5
1.116,   3.365e-5
1.119,   3.346e-5
1.122,   3.379e-5
1.125,   3.375e-5
1.128,   3.384e-5
1.131,   3.401e-5
1.134,   3.420e-5
1.137,   3.435e-5
1.140,   3.453e-5
1.143,   3.477e-5
1.146,   3.485e-5
1.149,   3.485e-5
1.152,   3.515e-5
1.155,   3.522e-5
1.158,   3.548e-5
1.161,   3.556e-5
1.164,   3.594e-5
1.167,   3.596e-5
1.170,   3.612e-5
1.173,   3.616e-5
1.176,   3.635e-5
1.179,   3.668e-5
1.182,   3.682e-5
1.185,   3.721e-5
1.188,   3.722e-5
1.191,   3.766e-5
1.194,   3.774e-5
1.197,   3.796e-5
1.200,   3.820e-5
1.203,   3.864e-5
1.206,   3.861e-5
1.209,   3.900e-5
1.212,   3.949e-5
1.215,   3.952e-5
1.218,   3.987e-5
1.221,   4.018e-5
1.224,   4.035e-5
1.227,   4.081e-5
1.230,   4.108e-5
1.233,   4.163e-5
1.236,   4.181e-5
1.239,   4.236e-5
1.242,   4.251e-5
1.245,   4.284e-5
1.248,   4.338e-5
1.251,   4.347e-5
1.254,   4.422e-5
1.257,   4.439e-5
1.260,   4.532e-5
1.263,   4.528e-5
1.266,   4.599e-5
1.269,   4.631e-5
1.272,   4.650e-5
1.275,   4.718e-5
1.278,   4.764e-5
1.281,   4.837e-5
1.284,   4.840e-5
1.287,   4.959e-5
1.290,   4.983e-5
1.293,   5.038e-5
1.296,   5.095e-5
1.299,   5.121e-5
1.302,   5.211e-5
1.305,   5.267e-5
1.308,   5.349e-5
1.311,   5.347e-5
1.314,   5.473e-5
1.317,   5.530e-5
1.320,   5.550e-5
1.323,   5.636e-5
1.326,   5.700e-5
1.329,   5.786e-5
1.332,   5.835e-5
1.335,   5.967e-5
1.338,   6.015e-5
1.341,   6.104e-5
1.344,   6.187e-5
1.347,   6.264e-5
1.350,   6.360e-5
1.353,   6.498e-5
1.356,   6.653e-5
1.359,   6.697e-5
1.362,   6.864e-5
1.365,   6.949e-5
1.368,   7.068e-5
1.371,   7.241e-5
1.374,   7.394e-5
1.377,   7.566e-5
1.380,   7.713e-5
1.383,   7.960e-5
1.386,   8.113e-5
1.389,   8.371e-5
1.392,   8.561e-5
1.395,   8.801e-5
1.398,   9.149e-5
1.401,   9.407e-5
1.404,   9.843e-5
1.407,   1.017e-4
1.410,   1.071e-4
1.413,   1.120e-4
1.416,   1.177e-4
1.419,   1.243e-4
1.422,   1.325e-4
1.425,   1.421e-4
1.428,   1.527e-4
1.431,   1.668e-4
1.434,   1.811e-4
1.437,   1.999e-4
1.440,   2.208e-4
1.443,   2.450e-4
1.446,   2.748e-4
1.449,   3.081e-4
1.452,   3.494e-4
1.455,   3.931e-4
1.458,   4.497e-4
1.461,   5.080e-4
1.464,   5.765e-4
1.467,   6.558e-4
1.470,   7.395e-4
1.473,   8.436e-4
1.476,   9.518e-4
1.479,   1.085e-3
1.482,   1.216e-3
1.485,   1.372e-3
1.488,   1.537e-3
1.491,   1.698e-3
1.494,   1.916e-3
1.497,   2.106e-3
1.500,   2.354e-3
1.503,   2.569e-3
1.506,   2.845e-3
1.509,   3.083e-3
1.512,   3.337e-3
1.515,   3.640e-3
1.518,   3.860e-3
1.521,   4.184e-3
1.524,   4.426e-3
1.527,   4.797e-3
1.530,   5.073e-3
1.533,   5.392e-3
1.536,   5.694e-3
1.539,   6.026e-3
1.542,   6.357e-3
1.545,   6.558e-3
1.548,   7.051e-3
1.551,   7.289e-3
1.554,   7.727e-3
1.557,   8.103e-3
1.560,   8.353e-3
1.563,   8.818e-3
1.566,   8.860e-3
1.569,   9.295e-3
1.572,   9.380e-3
1.575,   9.667e-3
1.578,   9.706e-3
1.581,   9.925e-3
1.584,   1.004e-2
1.587,   1.005e-2
1.590,   1.007e-2
1.593,   1.007e-2
1.596,   1.007e-2

File: B5_BEST_500_#1_Full(#11)-209mV.txt
June 9, 2023   11:37:47
Linear Sweep Voltammetry
File: d:\current work\al_oer\electrochemical test data\batch 5\500\B5_BEST_500_#1_Full(#11)-209mV.txt
Data Source:  Experiment
Instrument Model:  CHI660E
Header:
Note:

Init E (V) = 0.900

Final E (V) = 1.498

Scan Rate (V/s) = 0.010
Sample Interval (V) = 0.001
Quiet Time (sec) = 2
Sensitivity (A/V) = 0.001
Comp R (ohm) = 5.2

Results:

Channel 1:

Potential/V, Current/A
0.900,   2.226e-4
0.902,   2.602e-4
0.904,   2.472e-4
0.906,   2.590e-4
0.908,   2.493e-4
0.910,   2.473e-4
0.912,   2.535e-4
0.914,   2.383e-4
0.916,   2.477e-4
0.918,   2.380e-4
0.920,   2.385e-4
0.922,   2.421e-4
0.924,   2.290e-4
0.926,   2.368e-4
0.928,   2.283e-4
0.930,   2.300e-4
0.932,   2.321e-4
0.934,   2.216e-4
0.936,   2.279e-4
0.938,   2.186e-4
0.940,   2.224e-4
0.942,   2.240e-4
0.944,   2.138e-4
0.946,   2.230e-4
0.948,   2.166e-4
0.950,   2.139e-4
0.952,   2.215e-4
0.954,   2.091e-4
0.956,   2.173e-4
0.958,   2.098e-4
0.960,   2.083e-4
0.962,   2.144e-4
0.964,   2.035e-4
0.966,   2.124e-4
0.968,   2.073e-4
0.970,   2.062e-4
0.972,   2.127e-4
0.974,   2.023e-4
0.976,   2.071e-4
0.978,   2.019e-4
0.980,   2.027e-4
0.982,   2.071e-4
0.984,   1.978e-4
0.986,   2.021e-4
0.988,   1.983e-4
0.990,   1.993e-4
0.992,   2.053e-4
0.994,   1.963e-4
0.996,   1.997e-4
0.998,   1.956e-4
1.000,   1.978e-4
1.002,   2.031e-4
1.004,   1.939e-4
1.006,   1.980e-4
1.008,   1.928e-4
1.010,   1.957e-4
1.012,   1.997e-4
1.014,   1.934e-4
1.016,   1.961e-4
1.018,   1.936e-4
1.020,   1.936e-4
1.022,   1.986e-4
1.024,   1.918e-4
1.026,   1.946e-4
1.028,   1.926e-4
1.030,   1.928e-4
1.032,   1.973e-4
1.034,   1.910e-4
1.036,   1.945e-4
1.038,   1.922e-4
1.040,   1.907e-4
1.042,   1.990e-4
1.044,   1.896e-4
1.046,   1.960e-4
1.048,   1.925e-4
1.050,   1.928e-4
1.052,   1.965e-4
1.054,   1.892e-4
1.056,   1.954e-4
1.058,   1.925e-4
1.060,   1.918e-4
1.062,   1.977e-4
1.064,   1.896e-4
1.066,   1.959e-4
1.068,   1.931e-4
1.070,   1.927e-4
1.072,   1.988e-4
1.074,   1.898e-4
1.076,   1.966e-4
1.078,   1.942e-4
1.080,   1.956e-4
1.082,   2.006e-4
1.084,   1.932e-4
1.086,   1.974e-4
1.088,   1.961e-4
1.090,   1.960e-4
1.092,   2.031e-4
1.094,   1.949e-4
1.096,   1.987e-4
1.098,   1.977e-4
1.100,   1.990e-4
1.102,   2.042e-4
1.104,   1.966e-4
1.106,   2.022e-4
1.108,   2.017e-4
1.110,   2.015e-4
1.112,   2.072e-4
1.114,   2.003e-4
1.116,   2.054e-4
1.118,   2.039e-4
1.120,   2.046e-4
1.122,   2.115e-4
1.124,   2.032e-4
1.126,   2.093e-4
1.128,   2.080e-4
1.130,   2.090e-4
1.132,   2.147e-4
1.134,   2.042e-4
1.136,   2.122e-4
1.138,   2.116e-4
1.140,   2.113e-4
1.142,   2.225e-4
1.144,   2.070e-4
1.146,   2.173e-4
1.148,   2.169e-4
1.150,   2.141e-4
1.152,   2.253e-4
1.154,   2.118e-4
1.156,   2.231e-4
1.158,   2.190e-4
1.160,   2.197e-4
1.162,   2.341e-4
1.164,   2.163e-4
1.166,   2.253e-4
1.168,   2.233e-4
1.170,   2.225e-4
1.172,   2.352e-4
1.174,   2.216e-4
1.176,   2.308e-4
1.178,   2.317e-4
1.180,   2.283e-4
1.182,   2.403e-4
1.184,   2.273e-4
1.186,   2.358e-4
1.188,   2.356e-4
1.190,   2.339e-4
1.192,   2.439e-4
1.194,   2.326e-4
1.196,   2.418e-4
1.198,   2.407e-4
1.200,   2.397e-4
1.202,   2.519e-4
1.204,   2.380e-4
1.206,   2.493e-4
1.208,   2.456e-4
1.210,   2.447e-4
1.212,   2.603e-4
1.214,   2.438e-4
1.216,   2.584e-4
1.218,   2.545e-4
1.220,   2.526e-4
1.222,   2.665e-4
1.224,   2.485e-4
1.226,   2.651e-4
1.228,   2.653e-4
1.230,   2.599e-4
1.232,   2.743e-4
1.234,   2.571e-4
1.236,   2.760e-4
1.238,   2.741e-4
1.240,   2.661e-4
1.242,   2.828e-4
1.244,   2.626e-4
1.246,   2.834e-4
1.248,   2.851e-4
1.250,   2.753e-4
1.252,   2.883e-4
1.254,   2.736e-4
1.256,   2.937e-4
1.258,   2.923e-4
1.260,   2.877e-4
1.262,   2.980e-4
1.264,   2.850e-4
1.266,   3.034e-4
1.268,   3.092e-4
1.270,   2.930e-4
1.272,   3.126e-4
1.274,   2.952e-4
1.276,   3.159e-4
1.278,   3.254e-4
1.280,   3.040e-4
1.282,   3.222e-4
1.284,   3.061e-4
1.286,   3.265e-4
1.288,   3.302e-4
1.290,   3.169e-4
1.292,   3.338e-4
1.294,   3.167e-4
1.296,   3.386e-4
1.298,   3.456e-4
1.300,   3.280e-4
1.302,   3.482e-4
1.304,   3.311e-4
1.306,   3.519e-4
1.308,   3.613e-4
1.310,   3.407e-4
1.312,   3.660e-4
1.314,   3.442e-4
1.316,   3.654e-4
1.318,   3.783e-4
1.320,   3.566e-4
1.322,   3.850e-4
1.324,   3.599e-4
1.326,   3.858e-4
1.328,   3.847e-4
1.330,   3.750e-4
1.332,   4.063e-4
1.334,   3.768e-4
1.336,   4.003e-4
1.338,   4.082e-4
1.340,   3.901e-4
1.342,   4.259e-4
1.344,   3.956e-4
1.346,   4.222e-4
1.348,   4.283e-4
1.350,   4.098e-4
1.352,   4.477e-4
1.354,   4.152e-4
1.356,   4.528e-4
1.358,   4.484e-4
1.360,   4.412e-4
1.362,   4.717e-4
1.364,   4.421e-4
1.366,   4.768e-4
1.368,   4.879e-4
1.370,   4.703e-4
1.372,   5.135e-4
1.374,   4.788e-4
1.376,   5.188e-4
1.378,   5.307e-4
1.380,   5.232e-4
1.382,   5.671e-4
1.384,   5.276e-4
1.386,   5.754e-4
1.388,   5.844e-4
1.390,   5.763e-4
1.392,   6.347e-4
1.394,   5.979e-4
1.396,   6.553e-4
1.398,   6.765e-4
1.400,   6.635e-4
1.402,   7.397e-4
1.404,   6.972e-4
1.406,   7.903e-4
1.408,   8.156e-4
1.410,   8.117e-4
1.412,   8.716e-4
1.414,   8.488e-4
1.416,   9.447e-4
1.418,   1.013e-3
1.420,   1.010e-3
1.422,   1.108e-3
1.424,   1.098e-3
1.426,   1.246e-3
1.428,   1.350e-3
1.430,   1.359e-3
1.432,   1.519e-3
1.434,   1.529e-3
1.436,   1.757e-3
1.438,   1.921e-3
1.440,   1.981e-3
1.442,   2.223e-3
1.444,   2.291e-3
1.446,   2.659e-3
1.448,   2.977e-3
1.450,   3.077e-3
1.452,   3.482e-3
1.454,   3.678e-3
1.456,   4.179e-3
1.458,   4.679e-3
1.460,   4.994e-3
1.462,   5.656e-3
1.464,   5.867e-3
1.466,   6.527e-3
1.468,   7.188e-3
1.470,   7.381e-3
1.472,   8.132e-3
1.474,   8.525e-3
1.476,   9.170e-3
1.478,   9.625e-3
1.480,   9.591e-3
1.482,   9.864e-3
1.484,   9.929e-3
1.486,   1.005e-2
1.488,   1.007e-2
1.490,   1.007e-2
1.492,   1.007e-2
1.494,   1.007e-2
1.496,   1.007e-2
1.498,   1.007e-2

File: B5_BEST_500_#1_Full(#12)-220mV.txt
June 9, 2023   16:43:08
Linear Sweep Voltammetry
File: d:\current work\al_oer\electrochemical test data\batch 5\500\B5_BEST_500_#1_Full(#12)-220mV.txt
Data Source:  Experiment
Instrument Model:  CHI660E
Header:
Note:

Init E (V) = 0.897

Final E (V) = 1.495

Scan Rate (V/s) = 0.010
Sample Interval (V) = 0.001
Quiet Time (sec) = 2
Sensitivity (A/V) = 0.001
Comp R (ohm) = 4.2

Results:

Channel 1:

Potential/V, Current/A
0.897,   3.619e-4
0.899,   4.022e-4
0.901,   4.026e-4
0.903,   3.961e-4
0.905,   3.978e-4
0.907,   3.894e-4
0.909,   3.884e-4
0.911,   3.780e-4
0.913,   3.817e-4
0.915,   3.734e-4
0.917,   3.735e-4
0.919,   3.644e-4
0.921,   3.666e-4
0.923,   3.635e-4
0.925,   3.580e-4
0.927,   3.539e-4
0.929,   3.526e-4
0.931,   3.517e-4
0.933,   3.449e-4
0.935,   3.451e-4
0.937,   3.409e-4
0.939,   3.421e-4
0.941,   3.342e-4
0.943,   3.381e-4
0.945,   3.301e-4
0.947,   3.351e-4
0.949,   3.265e-4
0.951,   3.278e-4
0.953,   3.220e-4
0.955,   3.262e-4
0.957,   3.211e-4
0.959,   3.194e-4
0.961,   3.159e-4
0.963,   3.189e-4
0.965,   3.128e-4
0.967,   3.118e-4
0.969,   3.115e-4
0.971,   3.070e-4
0.973,   3.084e-4
0.975,   3.056e-4
0.977,   3.071e-4
0.979,   3.014e-4
0.981,   3.055e-4
0.983,   3.010e-4
0.985,   3.020e-4
0.987,   2.964e-4
0.989,   3.006e-4
0.991,   2.953e-4
0.993,   2.980e-4
0.995,   2.927e-4
0.997,   2.961e-4
0.999,   2.949e-4
1.001,   2.923e-4
1.003,   2.910e-4
1.005,   2.910e-4
1.007,   2.906e-4
1.009,   2.889e-4
1.011,   2.887e-4
1.013,   2.852e-4
1.015,   2.901e-4
1.017,   2.849e-4
1.019,   2.879e-4
1.021,   2.830e-4
1.023,   2.868e-4
1.025,   2.838e-4
1.027,   2.847e-4
1.029,   2.804e-4
1.031,   2.833e-4
1.033,   2.827e-4
1.035,   2.800e-4
1.037,   2.807e-4
1.039,   2.796e-4
1.041,   2.825e-4
1.043,   2.759e-4
1.045,   2.803e-4
1.047,   2.780e-4
1.049,   2.812e-4
1.051,   2.770e-4
1.053,   2.806e-4
1.055,   2.734e-4
1.057,   2.794e-4
1.059,   2.769e-4
1.061,   2.776e-4
1.063,   2.739e-4
1.065,   2.782e-4
1.067,   2.771e-4
1.069,   2.748e-4
1.071,   2.741e-4
1.073,   2.753e-4
1.075,   2.781e-4
1.077,   2.727e-4
1.079,   2.777e-4
1.081,   2.723e-4
1.083,   2.784e-4
1.085,   2.738e-4
1.087,   2.773e-4
1.089,   2.717e-4
1.091,   2.795e-4
1.093,   2.744e-4
1.095,   2.785e-4
1.097,   2.719e-4
1.099,   2.768e-4
1.101,   2.780e-4
1.103,   2.771e-4
1.105,   2.737e-4
1.107,   2.755e-4
1.109,   2.780e-4
1.111,   2.770e-4
1.113,   2.751e-4
1.115,   2.733e-4
1.117,   2.811e-4
1.119,   2.758e-4
1.121,   2.794e-4
1.123,   2.732e-4
1.125,   2.813e-4
1.127,   2.768e-4
1.129,   2.799e-4
1.131,   2.730e-4
1.133,   2.805e-4
1.135,   2.794e-4
1.137,   2.799e-4
1.139,   2.778e-4
1.141,   2.783e-4
1.143,   2.836e-4
1.145,   2.794e-4
1.147,   2.825e-4
1.149,   2.778e-4
1.151,   2.858e-4
1.153,   2.795e-4
1.155,   2.832e-4
1.157,   2.773e-4
1.159,   2.866e-4
1.161,   2.822e-4
1.163,   2.842e-4
1.165,   2.798e-4
1.167,   2.876e-4
1.169,   2.854e-4
1.171,   2.844e-4
1.173,   2.823e-4
1.175,   2.859e-4
1.177,   2.887e-4
1.179,   2.842e-4
1.181,   2.869e-4
1.183,   2.847e-4
1.185,   2.910e-4
1.187,   2.849e-4
1.189,   2.883e-4
1.191,   2.855e-4
1.193,   2.931e-4
1.195,   2.873e-4
1.197,   2.891e-4
1.199,   2.868e-4
1.201,   2.931e-4
1.203,   2.910e-4
1.205,   2.904e-4
1.207,   2.894e-4
1.209,   2.910e-4
1.211,   2.953e-4
1.213,   2.917e-4
1.215,   2.923e-4
1.217,   2.901e-4
1.219,   2.994e-4
1.221,   2.900e-4
1.223,   2.963e-4
1.225,   2.903e-4
1.227,   2.993e-4
1.229,   2.938e-4
1.231,   2.976e-4
1.233,   2.924e-4
1.235,   3.020e-4
1.237,   2.960e-4
1.239,   2.974e-4
1.241,   2.965e-4
1.243,   2.977e-4
1.245,   3.021e-4
1.247,   2.955e-4
1.249,   3.013e-4
1.251,   2.982e-4
1.253,   3.050e-4
1.255,   2.982e-4
1.257,   3.041e-4
1.259,   2.957e-4
1.261,   3.079e-4
1.263,   3.005e-4
1.265,   3.049e-4
1.267,   2.989e-4
1.269,   3.077e-4
1.271,   3.087e-4
1.273,   3.008e-4
1.275,   3.075e-4
1.277,   3.102e-4
1.279,   3.127e-4
1.281,   3.050e-4
1.283,   3.100e-4
1.285,   3.064e-4
1.287,   3.177e-4
1.289,   3.083e-4
1.291,   3.139e-4
1.293,   3.087e-4
1.295,   3.180e-4
1.297,   3.150e-4
1.299,   3.173e-4
1.301,   3.105e-4
1.303,   3.239e-4
1.305,   3.237e-4
1.307,   3.194e-4
1.309,   3.254e-4
1.311,   3.281e-4
1.313,   3.309e-4
1.315,   3.237e-4
1.317,   3.358e-4
1.319,   3.277e-4
1.321,   3.428e-4
1.323,   3.303e-4
1.325,   3.421e-4
1.327,   3.347e-4
1.329,   3.505e-4
1.331,   3.416e-4
1.333,   3.472e-4
1.335,   3.416e-4
1.337,   3.535e-4
1.339,   3.585e-4
1.341,   3.552e-4
1.343,   3.564e-4
1.345,   3.597e-4
1.347,   3.698e-4
1.349,   3.570e-4
1.351,   3.676e-4
1.353,   3.642e-4
1.355,   3.857e-4
1.357,   3.655e-4
1.359,   3.826e-4
1.361,   3.773e-4
1.363,   3.936e-4
1.365,   3.850e-4
1.367,   3.905e-4
1.369,   3.891e-4
1.371,   4.036e-4
1.373,   4.054e-4
1.375,   4.046e-4
1.377,   4.122e-4
1.379,   4.185e-4
1.381,   4.287e-4
1.383,   4.223e-4
1.385,   4.370e-4
1.387,   4.330e-4
1.389,   4.597e-4
1.391,   4.455e-4
1.393,   4.698e-4
1.395,   4.603e-4
1.397,   4.926e-4
1.399,   4.849e-4
1.401,   5.022e-4
1.403,   5.029e-4
1.405,   5.333e-4
1.407,   5.418e-4
1.409,   5.458e-4
1.411,   5.665e-4
1.413,   5.889e-4
1.415,   6.215e-4
1.417,   6.157e-4
1.419,   6.562e-4
1.421,   6.772e-4
1.423,   7.395e-4
1.425,   7.369e-4
1.427,   7.940e-4
1.429,   8.214e-4
1.431,   9.191e-4
1.433,   9.390e-4
1.435,   1.006e-3
1.437,   1.074e-3
1.439,   1.199e-3
1.441,   1.281e-3
1.443,   1.366e-3
1.445,   1.490e-3
1.447,   1.660e-3
1.449,   1.865e-3
1.451,   1.963e-3
1.453,   2.193e-3
1.455,   2.433e-3
1.457,   2.800e-3
1.459,   2.956e-3
1.461,   3.309e-3
1.463,   3.613e-3
1.465,   4.177e-3
1.467,   4.461e-3
1.469,   4.878e-3
1.471,   5.283e-3
1.473,   5.956e-3
1.475,   6.439e-3
1.477,   6.874e-3
1.479,   7.393e-3
1.481,   8.068e-3
1.483,   8.648e-3
1.485,   8.952e-3
1.487,   9.413e-3
1.489,   9.796e-3
1.491,   1.001e-2
1.493,   1.007e-2
1.495,   1.007e-2

File: B5_BEST_500_#1_Full(#13)-220mV.txt
June 8, 2023   21:23:22
Linear Sweep Voltammetry
File: d:\current work\al_oer\electrochemical test data\batch 5\500\B5_BEST_500_#1_Full(#13)-220mV.txt
Data Source:  Experiment
Instrument Model:  CHI660E
Header:
Note:

Init E (V) = 0.899

Final E (V) = 1.518

Scan Rate (V/s) = 0.010
Sample Interval (V) = 0.001
Quiet Time (sec) = 2
Sensitivity (A/V) = 0.001
Comp R (ohm) = 4.3

Results:

Channel 1:

Potential/V, Current/A
0.899,   3.565e-4
0.902,   4.932e-4
0.905,   4.455e-4
0.908,   4.646e-4
0.911,   4.303e-4
0.914,   4.265e-4
0.917,   4.311e-4
0.920,   4.088e-4
0.923,   4.409e-4
0.926,   4.009e-4
0.929,   4.292e-4
0.932,   3.936e-4
0.935,   3.938e-4
0.938,   3.897e-4
0.941,   3.757e-4
0.944,   4.058e-4
0.947,   3.720e-4
0.950,   4.006e-4
0.953,   3.661e-4
0.956,   3.744e-4
0.959,   3.685e-4
0.962,   3.559e-4
0.965,   3.827e-4
0.968,   3.523e-4
0.971,   3.854e-4
0.974,   3.508e-4
0.977,   3.637e-4
0.980,   3.488e-4
0.983,   3.417e-4
0.986,   3.638e-4
0.989,   3.384e-4
0.992,   3.715e-4
0.995,   3.407e-4
0.998,   3.520e-4
1.001,   3.394e-4
1.004,   3.360e-4
1.007,   3.509e-4
1.010,   3.307e-4
1.013,   3.619e-4
1.016,   3.319e-4
1.019,   3.490e-4
1.022,   3.315e-4
1.025,   3.291e-4
1.028,   3.398e-4
1.031,   3.248e-4
1.034,   3.532e-4
1.037,   3.301e-4
1.040,   3.456e-4
1.043,   3.269e-4
1.046,   3.286e-4
1.049,   3.378e-4
1.052,   3.215e-4
1.055,   3.536e-4
1.058,   3.236e-4
1.061,   3.491e-4
1.064,   3.249e-4
1.067,   3.314e-4
1.070,   3.363e-4
1.073,   3.244e-4
1.076,   3.528e-4
1.079,   3.232e-4
1.082,   3.584e-4
1.085,   3.235e-4
1.088,   3.385e-4
1.091,   3.378e-4
1.094,   3.241e-4
1.097,   3.604e-4
1.100,   3.290e-4
1.103,   3.624e-4
1.106,   3.333e-4
1.109,   3.492e-4
1.112,   3.427e-4
1.115,   3.342e-4
1.118,   3.685e-4
1.121,   3.358e-4
1.124,   3.769e-4
1.127,   3.429e-4
1.130,   3.606e-4
1.133,   3.512e-4
1.136,   3.448e-4
1.139,   3.806e-4
1.142,   3.502e-4
1.145,   3.975e-4
1.148,   3.533e-4
1.151,   3.782e-4
1.154,   3.631e-4
1.157,   3.634e-4
1.160,   3.870e-4
1.163,   3.593e-4
1.166,   4.236e-4
1.169,   3.681e-4
1.172,   4.042e-4
1.175,   3.782e-4
1.178,   3.809e-4
1.181,   4.061e-4
1.184,   3.756e-4
1.187,   4.363e-4
1.190,   3.879e-4
1.193,   4.345e-4
1.196,   3.998e-4
1.199,   4.092e-4
1.202,   4.233e-4
1.205,   3.997e-4
1.208,   4.734e-4
1.211,   4.068e-4
1.214,   4.697e-4
1.217,   4.226e-4
1.220,   4.343e-4
1.223,   4.469e-4
1.226,   4.289e-4
1.229,   4.932e-4
1.232,   4.329e-4
1.235,   5.014e-4
1.238,   4.504e-4
1.241,   4.786e-4
1.244,   4.700e-4
1.247,   4.600e-4
1.250,   5.189e-4
1.253,   4.619e-4
1.256,   5.404e-4
1.259,   4.697e-4
1.262,   5.044e-4
1.265,   4.801e-4
1.268,   4.842e-4
1.271,   5.317e-4
1.274,   4.790e-4
1.277,   5.621e-4
1.280,   4.893e-4
1.283,   5.305e-4
1.286,   4.946e-4
1.289,   5.010e-4
1.292,   5.350e-4
1.295,   4.902e-4
1.298,   5.689e-4
1.301,   4.965e-4
1.304,   5.483e-4
1.307,   5.035e-4
1.310,   5.141e-4
1.313,   5.328e-4
1.316,   5.023e-4
1.319,   5.772e-4
1.322,   5.024e-4
1.325,   5.602e-4
1.328,   5.138e-4
1.331,   5.330e-4
1.334,   5.373e-4
1.337,   5.099e-4
1.340,   5.857e-4
1.343,   5.181e-4
1.346,   5.766e-4
1.349,   5.252e-4
1.352,   5.431e-4
1.355,   5.405e-4
1.358,   5.311e-4
1.361,   6.040e-4
1.364,   5.375e-4
1.367,   6.085e-4
1.370,   5.525e-4
1.373,   5.729e-4
1.376,   5.770e-4
1.379,   5.625e-4
1.382,   6.330e-4
1.385,   5.679e-4
1.388,   6.590e-4
1.391,   5.963e-4
1.394,   6.340e-4
1.397,   6.249e-4
1.400,   6.188e-4
1.403,   6.984e-4
1.406,   6.459e-4
1.409,   7.454e-4
1.412,   6.787e-4
1.415,   7.603e-4
1.418,   7.302e-4
1.421,   7.576e-4
1.424,   8.459e-4
1.427,   8.212e-4
1.430,   1.007e-3
1.433,   9.412e-4
1.436,   1.132e-3
1.439,   1.104e-3
1.442,   1.258e-3
1.445,   1.445e-3
1.448,   1.484e-3
1.451,   1.913e-3
1.454,   1.910e-3
1.457,   2.425e-3
1.460,   2.466e-3
1.463,   3.009e-3
1.466,   3.451e-3
1.469,   3.798e-3
1.472,   4.806e-3
1.475,   4.939e-3
1.478,   6.110e-3
1.481,   6.313e-3
1.484,   7.457e-3
1.487,   8.182e-3
1.490,   8.989e-3
1.493,   9.643e-3
1.496,   1.004e-2
1.499,   1.007e-2
1.502,   1.007e-2
1.505,   1.007e-2
1.508,   1.007e-2
1.511,   1.007e-2
1.514,   1.007e-2
1.517,   1.007e-2
1.518,   1.007e-2