Folder: DASH/Experimental Records, Raw Data, and Supplementary Notes and Figures/batch0

Note: README.md
# DASH
This is the online repository that stores code, data and supplementary figures of the research work: <Leveraging Data Mining, Active Learning, and Domain Adaptation in a Multi-Stage, Machine Learning-Driven Approach for the Efficient Discovery of Advanced Acidic Oxygen Evolution Electrocatalysts> by Rui Ding et. al. (https://arxiv.org/abs/2407.04877)
![Workflow Schematic](https://github.com/ruiding-uchicago/D.A.S.H./blob/main/Online%20Repository%20Figures/D.A.S.H.%20Workflow.jpg)
## Code Description

Our code is written and uploaded on GitHub in Jupyter notebook file format, which is already very easy to conduct and get results. Our code does not include providing a new python library, but users could track how we train machine learning models in Jupyter ipynb files. Also, we have provided all original dataset CSV files to drive the active learning flow. Additionally, we have detailed the python version and package environment used for this work, focusing on machine learning-related packages.

## Environment
This project was trained using Python version 3.9.12. Below is the list of machine learning-related packages and their versions used in this project on the local machine we used equipped with 2080 Ti GPU, users could install anaconda (https://www.anaconda.com/download) and using pip install to install the packages below for setting environment to run in the Jupyter notebook (https://docs.anaconda.com/ae-notebooks/user-guide/basic-tasks/apps/jupyter/index.html):

absl-py 1.2.0
ase 3.22.1
catboost 1.0.6
cython 0.29.28
dask 2022.2.1
deep-forest 0.1.7
gensim 4.1.2
h5py 3.6.0
keras 2.9.0
Keras-Preprocessing 1.1.2
keras-tcn 3.5.0
lightgbm 3.3.2
matplotlib 3.4.3
numpy 1.23.5
pandas 1.4.2
pytorch-lightning 2.0.1
pymatgen 2023.8.10
scikit-learn 1.0.2
scipy 1.8.0
scikit-opt  0.6.6
scikit-optimize 0.9.0
seaborn 0.11.2
tensorboard                  2.10.1
tensorboard-data-server      0.6.1
tensorboard-plugin-wit       1.8.1
tensorflow-estimator         2.10.0
tensorflow-gpu               2.10.0
tensorflow-io-gcs-filesystem 0.31.0
torch 2.0.0
torchvision 0.15.1
xgboost 1.6.2

File: Ru-300.txt
Dec. 1, 2022   12:17:53
Linear Sweep Voltammetry
File: d:\current work\al_oer\data retrieve\batch 0\ru-300.txt
Data Source:  Experiment
Instrument Model:  CHI760E
Header:
Note:

Init E (V) = 0.901

Final E (V) = 1.601

Scan Rate (V/s) = 0.010
Sample Interval (V) = 0.001
Quiet Time (sec) = 2
Sensitivity (A/V) = 0.001
Comp R (ohm) = 4.9

Results:

Channel 1:

Potential/V, Current/A

1.098,	6.47E-06
1.101,	0.000005462
1.104,	0.00000472
1.107,	0.000004192
1.11,	0.00000373
1.113,	0.000003368
1.116,	0.000003097
1.119,	0.000002846
1.122,	0.000002661
1.125,	0.000002508
1.128,	0.000002362
1.131,	0.000002241
1.134,	0.000002162
1.137,	0.000002063
1.14,	0.000002008
1.143,	0.000001935
1.146,	0.00000188
1.149,	0.000001817
1.152,	0.000001772
1.155,	0.000001743
1.158,	0.000001712
1.161,	0.000001667
1.164,	0.000001645
1.167,	0.000001633
1.17,	0.000001584
1.173,	0.000001592
1.176,	0.000001546
1.179,	0.000001548
1.182,	0.000001503
1.185,	0.000001524
1.188,	0.000001489
1.191,	0.000001478
1.194,	0.00000149
1.197,	0.000001474
1.2,	0.00000145
1.203,	0.000001454
1.206,	0.000001442
1.209,	0.000001449
1.212,	0.000001468
1.215,	0.000001443
1.218,	0.000001447
1.221,	0.000001433
1.224,	0.000001437
1.227,	0.000001432
1.23,	0.000001447
1.233,	0.000001398
1.236,	0.000001431
1.239,	0.000001434
1.242,	0.000001422
1.245,	0.000001442
1.248,	0.000001444
1.251,	0.000001441
1.254,	0.000001415
1.257,	0.000001433
1.26,	0.000001433
1.263,	0.000001436
1.266,	0.000001448
1.269,	0.000001461
1.272,	0.000001441
1.275,	0.000001449
1.278,	0.000001456
1.281,	0.000001507
1.284,	0.000001484
1.287,	0.000001478
1.29,	0.000001525
1.293,	0.000001496
1.296,	0.000001499
1.299,	0.000001518
1.302,	0.000001518
1.305,	0.000001546
1.308,	0.000001526
1.311,	0.000001537
1.314,	0.000001555
1.317,	0.000001571
1.32,	0.000001582
1.323,	0.000001576
1.326,	0.000001598
1.329,	0.0000016
1.332,	0.000001618
1.335,	0.000001634
1.338,	0.000001645
1.341,	0.000001659
1.344,	0.000001678
1.347,	0.000001698
1.35,	0.000001705
1.353,	0.000001706
1.356,	0.000001708
1.359,	0.000001717
1.362,	0.000001746
1.365,	0.000001757
1.368,	0.000001809
1.371,	0.000001817
1.374,	0.000001832
1.377,	0.000001859
1.38,	0.000001888
1.383,	0.000001889
1.386,	0.000001926
1.389,	0.000001956
1.392,	0.000001978
1.395,	0.000002004
1.398,	0.000002018
1.401,	0.000002034
1.404,	0.000002072
1.407,	0.000002089
1.41,	0.000002118
1.413,	0.000002166
1.416,	0.000002167
1.419,	0.000002221
1.422,	0.000002272
1.425,	0.000002298
1.428,	0.000002376
1.431,	0.00000237
1.434,	0.0000024
1.437,	0.000002441
1.44,	0.000002494
1.443,	0.000002532
1.446,	0.000002575
1.449,	0.000002609
1.452,	0.000002666
1.455,	0.000002752
1.458,	0.000002773
1.461,	0.000002833
1.464,	0.000002899
1.467,	0.000002964
1.47,	0.000003014
1.473,	0.000003055
1.476,	0.000003154
1.479,	0.000003223
1.482,	0.000003272
1.485,	0.000003332
1.488,	0.000003391
1.491,	0.000003458
1.494,	0.000003562
1.497,	0.000003638
1.5,	0.0000037
1.503,	0.000003769
1.506,	0.00000383
1.509,	0.000003922
1.512,	0.000004013
1.515,	0.00000409
1.518,	0.000004175
1.521,	0.000004275
1.524,	0.000004326
1.527,	0.000004448
1.53,	0.00000451
1.533,	0.000004611
1.536,	0.000004699
1.539,	0.00000479
1.542,	0.00000489
1.545,	0.000004982
1.548,	0.000005062
1.551,	0.000005173
1.554,	0.000005261
1.557,	0.000005369
1.56,	0.00000546
1.563,	0.000005595
1.566,	0.000005683
1.569,	0.000005801
1.572,	0.000005907
1.575,	0.000006022
1.578,	0.000006111
1.581,	0.000006257
1.584,	0.000006357
1.587,	0.00000646
1.59,	0.000006556
1.593,	0.000006688
1.596,	0.000006797
1.599,	0.000006925
1.602,	0.000007024
1.605,	0.000007151
1.608,	0.000007285
1.611,	0.000007399
1.614,	0.000007499
1.617,	0.000007642
1.62,	0.000007735
1.623,	0.000007871
1.626,	0.000007982
1.629,	0.000008133
1.632,	0.000008226
1.635,	0.000008326
1.638,	0.000008441
1.641,	0.000008587
1.644,	0.000008717
1.647,	0.000008833
1.65,	0.000008949
1.653,	0.000009075
1.656,	0.000009209
1.659,	0.000009361
1.662,	0.00000949
1.665,	0.000009631
1.668,	0.000009748
1.671,	0.000009893
1.674,	0.00001007
1.677,	0.00001016
1.68,	0.00001031
1.683,	0.00001045
1.686,	0.00001058
1.689,	0.00001073
1.692,	0.00001087
1.695,	0.00001099
1.698,	0.00001114
1.701,	0.00001128
1.704,	0.00001143
1.707,	0.00001158
1.71,	0.00001172
1.713,	0.00001188
1.716,	0.00001205
1.719,	0.00001219
1.722,	0.00001236
1.725,	0.00001252
1.728,	0.00001265
1.731,	0.00001281
1.734,	0.00001298
1.737,	0.00001314
1.74,	0.00001331
1.743,	0.00001345
1.746,	0.00001364
1.749,	0.00001381
1.752,	0.000014
1.755,	0.00001414
1.758,	0.00001435
1.761,	0.00001456
1.764,	0.00001473
1.767,	0.00001492
1.77,	0.00001511
1.773,	0.00001528
1.776,	0.00001547
1.779,	0.00001569
1.782,	0.00001586
1.785,	0.00001607
1.788,	0.00001631
1.791,	0.0000165
1.794,	0.00001668
1.797,	0.00001691

File: Ru-400.txt
Nov. 28, 2022   17:03:04
Linear Sweep Voltammetry
File: d:\current work\al_oer\data retrieve\batch 0\ru-400.txt
Data Source:  Experiment
Instrument Model:  CHI760E
Header:
Note:

Init E (V) = 1.098

Final E (V) = 1.497

Scan Rate (V/s) = 0.010
Sample Interval (V) = 0.001
Quiet Time (sec) = 2
Sensitivity (A/V) = 0.001
Comp R (ohm) = 4.8

Results:

Channel 1:

Potential/V, Current/A

1.098,	1.02E-04
1.1,	0.0001068
1.102,	0.00009761
1.104,	0.00009045
1.106,	0.00008507
1.108,	0.00008084
1.11,	0.00007706
1.112,	0.00007398
1.114,	0.00007139
1.116,	0.0000694
1.118,	0.00006763
1.12,	0.00006578
1.122,	0.00006449
1.124,	0.00006346
1.126,	0.00006229
1.128,	0.00006128
1.13,	0.00006045
1.132,	0.00006009
1.134,	0.0000592
1.136,	0.00005856
1.138,	0.0000582
1.14,	0.00005796
1.142,	0.0000574
1.144,	0.00005708
1.146,	0.00005672
1.148,	0.00005673
1.15,	0.00005646
1.152,	0.0000561
1.154,	0.00005591
1.156,	0.000056
1.158,	0.00005581
1.16,	0.00005553
1.162,	0.00005538
1.164,	0.0000556
1.166,	0.00005552
1.168,	0.00005527
1.17,	0.00005553
1.172,	0.00005545
1.174,	0.0000554
1.176,	0.00005529
1.178,	0.00005528
1.18,	0.00005554
1.182,	0.00005557
1.184,	0.00005536
1.186,	0.00005551
1.188,	0.0000557
1.19,	0.00005566
1.192,	0.00005548
1.194,	0.00005554
1.196,	0.00005594
1.198,	0.000056
1.2,	0.00005573
1.202,	0.00005586
1.204,	0.00005627
1.206,	0.00005604
1.208,	0.00005611
1.21,	0.0000559
1.212,	0.00005633
1.214,	0.00005628
1.216,	0.00005611
1.218,	0.00005627
1.22,	0.00005646
1.222,	0.00005644
1.224,	0.00005633
1.226,	0.00005628
1.228,	0.00005666
1.23,	0.00005654
1.232,	0.00005642
1.234,	0.00005666
1.236,	0.00005677
1.238,	0.00005669
1.24,	0.00005651
1.242,	0.00005644
1.244,	0.00005673
1.246,	0.00005671
1.248,	0.00005655
1.25,	0.00005657
1.252,	0.00005667
1.254,	0.00005661
1.256,	0.00005656
1.258,	0.00005652
1.26,	0.00005685
1.262,	0.00005674
1.264,	0.00005647
1.266,	0.00005671
1.268,	0.00005679
1.27,	0.00005672
1.272,	0.00005683
1.274,	0.00005671
1.276,	0.00005692
1.278,	0.00005693
1.28,	0.00005673
1.282,	0.00005681
1.284,	0.00005706
1.286,	0.00005707
1.288,	0.000057
1.29,	0.00005694
1.292,	0.00005747
1.294,	0.00005734
1.296,	0.00005727
1.298,	0.00005755
1.3,	0.0000578
1.302,	0.00005777
1.304,	0.00005798
1.306,	0.0000579
1.308,	0.00005839
1.31,	0.00005851
1.312,	0.00005853
1.314,	0.00005876
1.316,	0.00005913
1.318,	0.00005935
1.32,	0.00005934
1.322,	0.00005976
1.324,	0.00006058
1.326,	0.00006064
1.328,	0.00006076
1.33,	0.00006131
1.332,	0.00006186
1.334,	0.00006224
1.336,	0.00006278
1.338,	0.00006307
1.34,	0.0000641
1.342,	0.00006465
1.344,	0.00006515
1.346,	0.00006606
1.348,	0.00006713
1.35,	0.00006798
1.352,	0.00006906
1.354,	0.00007026
1.356,	0.00007193
1.358,	0.0000734
1.36,	0.00007474
1.362,	0.00007714
1.364,	0.00007924
1.366,	0.00008151
1.368,	0.00008415
1.37,	0.00008702
1.372,	0.00009077
1.374,	0.00009458
1.376,	0.00009868
1.378,	0.0001035
1.38,	0.0001092
1.382,	0.0001155
1.384,	0.0001221
1.386,	0.0001301
1.388,	0.0001395
1.39,	0.0001493
1.392,	0.0001605
1.394,	0.0001735
1.396,	0.0001882
1.398,	0.0002043
1.4,	0.0002224
1.402,	0.0002431
1.404,	0.0002664
1.406,	0.0002923
1.408,	0.0003211
1.41,	0.0003538
1.412,	0.0003904
1.414,	0.0004313
1.416,	0.0004762
1.418,	0.0005262
1.42,	0.0005828
1.422,	0.0006451
1.424,	0.0007134
1.426,	0.0007897
1.428,	0.0008755
1.43,	0.0009693
1.432,	0.00107
1.434,	0.001182
1.436,	0.001308
1.438,	0.001443
1.44,	0.001592
1.442,	0.001756
1.444,	0.001933
1.446,	0.00213
1.448,	0.002339
1.45,	0.002571
1.452,	0.002819
1.454,	0.003084
1.456,	0.00337
1.458,	0.003684
1.46,	0.004005
1.462,	0.00435
1.464,	0.004712
1.466,	0.005121
1.468,	0.005534
1.47,	0.005963
1.472,	0.006404
1.474,	0.00689
1.476,	0.007392
1.478,	0.007949
1.48,	0.008434
1.482,	0.009668
1.484,	0.01006
1.486,	0.01006
1.488,	0.01006
1.49,	0.01006
1.492,	0.01006
1.494,	0.01006
1.496,	0.01006
1.497,	0.01006

File: Ru-500.txt
Nov. 28, 2022   18:52:54
Linear Sweep Voltammetry
File: d:\current work\al_oer\data retrieve\batch 0\ru-500.txt
Data Source:  Experiment
Instrument Model:  CHI760E
Header:
Note:

Init E (V) = 1.098

Final E (V) = 1.497

Scan Rate (V/s) = 0.010
Sample Interval (V) = 0.001
Quiet Time (sec) = 2
Sensitivity (A/V) = 0.001
Comp R (ohm) = 5.3

Results:

Channel 1:

Potential/V, Current/A

1.098,	6.23E-05
1.1,	0.00006448
1.102,	0.00005911
1.104,	0.00005497
1.106,	0.00005179
1.108,	0.00004911
1.11,	0.00004678
1.112,	0.00004484
1.114,	0.00004319
1.116,	0.00004195
1.118,	0.00004083
1.12,	0.0000397
1.122,	0.00003877
1.124,	0.00003814
1.126,	0.00003749
1.128,	0.00003693
1.13,	0.00003634
1.132,	0.0000361
1.134,	0.00003566
1.136,	0.00003523
1.138,	0.00003504
1.14,	0.00003484
1.142,	0.00003462
1.144,	0.00003451
1.146,	0.00003429
1.148,	0.00003429
1.15,	0.00003421
1.152,	0.00003406
1.154,	0.00003419
1.156,	0.0000343
1.158,	0.00003427
1.16,	0.00003433
1.162,	0.00003445
1.164,	0.00003458
1.166,	0.00003464
1.168,	0.00003451
1.17,	0.00003493
1.172,	0.00003502
1.174,	0.0000353
1.176,	0.00003536
1.178,	0.00003549
1.18,	0.00003584
1.182,	0.00003603
1.184,	0.00003608
1.186,	0.00003632
1.188,	0.00003662
1.19,	0.00003675
1.192,	0.0000368
1.194,	0.00003704
1.196,	0.00003754
1.198,	0.00003747
1.2,	0.00003745
1.202,	0.00003763
1.204,	0.00003801
1.206,	0.00003805
1.208,	0.00003824
1.21,	0.00003828
1.212,	0.0000385
1.214,	0.00003862
1.216,	0.00003854
1.218,	0.00003859
1.22,	0.00003882
1.222,	0.00003898
1.224,	0.00003934
1.226,	0.00003893
1.228,	0.0000391
1.23,	0.00003904
1.232,	0.00003887
1.234,	0.00003913
1.236,	0.00003916
1.238,	0.00003899
1.24,	0.00003896
1.242,	0.00003884
1.244,	0.00003892
1.246,	0.00003884
1.248,	0.00003871
1.25,	0.00003875
1.252,	0.00003873
1.254,	0.00003862
1.256,	0.00003849
1.258,	0.00003834
1.26,	0.00003843
1.262,	0.00003835
1.264,	0.0000381
1.266,	0.00003805
1.268,	0.00003814
1.27,	0.00003802
1.272,	0.00003798
1.274,	0.0000377
1.276,	0.00003784
1.278,	0.00003775
1.28,	0.00003754
1.282,	0.00003757
1.284,	0.00003747
1.286,	0.00003752
1.288,	0.00003734
1.29,	0.00003727
1.292,	0.00003741
1.294,	0.0000373
1.296,	0.00003727
1.298,	0.00003733
1.3,	0.00003629
1.302,	0.00003848
1.304,	0.00003634
1.306,	0.00003789
1.308,	0.0000377
1.31,	0.00003672
1.312,	0.0000386
1.314,	0.00003766
1.316,	0.00003699
1.318,	0.00003801
1.32,	0.0000388
1.322,	0.00003887
1.324,	0.00003905
1.326,	0.00003872
1.328,	0.00003848
1.33,	0.00003883
1.332,	0.00003925
1.334,	0.00003992
1.336,	0.00004156
1.338,	0.00004036
1.34,	0.00003962
1.342,	0.00004343
1.344,	0.00003991
1.346,	0.00004344
1.348,	0.00004126
1.35,	0.00004554
1.352,	0.00004272
1.354,	0.00004491
1.356,	0.00004639
1.358,	0.00004688
1.36,	0.00004519
1.362,	0.00004676
1.364,	0.00004931
1.366,	0.00005061
1.368,	0.00005192
1.37,	0.00005361
1.372,	0.00005588
1.374,	0.00005778
1.376,	0.00005933
1.378,	0.00006189
1.38,	0.00006531
1.382,	0.0000683
1.384,	0.00007089
1.386,	0.00007537
1.388,	0.00008039
1.39,	0.00008546
1.392,	0.00009093
1.394,	0.00009742
1.396,	0.0001048
1.398,	0.0001123
1.4,	0.000121
1.402,	0.0001316
1.404,	0.0001424
1.406,	0.0001551
1.408,	0.0001688
1.41,	0.0001834
1.412,	0.0002006
1.414,	0.0002202
1.416,	0.0002423
1.418,	0.0002907
1.42,	0.0003119
1.422,	0.0003425
1.424,	0.0003641
1.426,	0.0004067
1.428,	0.0004484
1.43,	0.0004998
1.432,	0.0005377
1.434,	0.0005905
1.436,	0.0006648
1.438,	0.0007246
1.44,	0.0007909
1.442,	0.0008713
1.444,	0.0009705
1.446,	0.001054
1.448,	0.001161
1.45,	0.001261
1.452,	0.001399
1.454,	0.001543
1.456,	0.001676
1.458,	0.001847
1.46,	0.002027
1.462,	0.00221
1.464,	0.002421
1.466,	0.002688
1.468,	0.002955
1.47,	0.00324
1.472,	0.003538
1.474,	0.003852
1.476,	0.004244
1.478,	0.004612
1.48,	0.004913
1.482,	0.005152
1.484,	0.005545
1.486,	0.005986
1.488,	0.006494
1.49,	0.006904
1.492,	0.007386
1.494,	0.007948
1.496,	0.008605
1.497,	0.008929

File: Ru-600.txt
Nov. 30, 2022   14:48:41
Linear Sweep Voltammetry
File: d:\current work\al_oer\data retrieve\batch 0\ru-600.txt
Data Source:  Experiment
Instrument Model:  CHI760E
Header:
Note:

Init E (V) = 1.098

Final E (V) = 1.597

Scan Rate (V/s) = 0.010
Sample Interval (V) = 0.001
Quiet Time (sec) = 2
Sensitivity (A/V) = 0.001
Comp R (ohm) = 4.7

Results:

Channel 1:
Ep = 1.294V
ip = 1.001e-2A
Ah = 4.869e-2C

Potential/V, Current/A

1.098,	-2.76E-06
1.1,	6.393E-07
1.102,	0.000001364
1.104,	0.00000194
1.106,	0.000002429
1.108,	0.000002812
1.11,	0.000003155
1.112,	0.000003439
1.114,	0.000003664
1.116,	0.000003932
1.118,	0.000004134
1.12,	0.000004279
1.122,	0.00000449
1.124,	0.000004625
1.126,	0.000004742
1.128,	0.000004875
1.13,	0.00000496
1.132,	0.000005126
1.134,	0.000005194
1.136,	0.000005265
1.138,	0.000005379
1.14,	0.000005521
1.142,	0.000005524
1.144,	0.000005638
1.146,	0.000005714
1.148,	0.000005789
1.15,	0.000005882
1.152,	0.00000591
1.154,	0.000005983
1.156,	0.000006102
1.158,	0.000006161
1.16,	0.000006185
1.162,	0.000006215
1.164,	0.000006314
1.166,	0.00000639
1.168,	0.000006422
1.17,	0.000006505
1.172,	0.000006573
1.174,	0.000006616
1.176,	0.00000664
1.178,	0.000006708
1.18,	0.000006771
1.182,	0.00000682
1.184,	0.00000687
1.186,	0.000006932
1.188,	0.000006986
1.19,	0.000007061
1.192,	0.000007054
1.194,	0.000007133
1.196,	0.000007186
1.198,	0.000007251
1.2,	0.000007279
1.202,	0.000007341
1.204,	0.000007389
1.206,	0.000007422
1.208,	0.000007475
1.21,	0.000007487
1.212,	0.000007573
1.214,	0.00000761
1.216,	0.000007618
1.218,	0.000007665
1.22,	0.000007702
1.222,	0.000007729
1.224,	0.000007752
1.226,	0.000007801
1.228,	0.000007849
1.23,	0.000007884
1.232,	0.000007891
1.234,	0.000007981
1.236,	0.000007987
1.238,	0.00000801
1.24,	0.000008009
1.242,	0.000008051
1.244,	0.000008132
1.246,	0.000008128
1.248,	0.000008154
1.25,	0.00000816
1.252,	0.000008235
1.254,	0.000008244
1.256,	0.000008257
1.258,	0.000008256
1.26,	0.000008365
1.262,	0.000008355
1.264,	0.000008342
1.266,	0.000008386
1.268,	0.000008438
1.27,	0.000008455
1.272,	0.000008497
1.274,	0.000008515
1.276,	0.000008578
1.278,	0.000008599
1.28,	0.000008591
1.282,	0.000008639
1.284,	0.000008688
1.286,	0.000008733
1.288,	0.000008751
1.29,	0.00000879
1.292,	0.000008905
1.294,	0.000008953
1.296,	0.00000894
1.298,	0.000009012
1.3,	0.000009062
1.302,	0.000009089
1.304,	0.000009176
1.306,	0.000009236
1.308,	0.000009318
1.31,	0.000009395
1.312,	0.000009447
1.314,	0.000009539
1.316,	0.000009648
1.318,	0.0000097
1.32,	0.000009793
1.322,	0.000009918
1.324,	0.00001007
1.326,	0.00001015
1.328,	0.00001026
1.33,	0.00001037
1.332,	0.00001052
1.334,	0.00001067
1.336,	0.00001084
1.338,	0.000011
1.34,	0.0000112
1.342,	0.00001143
1.344,	0.00001158
1.346,	0.00001184
1.348,	0.00001216
1.35,	0.00001245
1.352,	0.00001266
1.354,	0.00001306
1.356,	0.00001343
1.358,	0.0000138
1.36,	0.00001422
1.362,	0.00001477
1.364,	0.00001535
1.366,	0.00001596
1.368,	0.00001662
1.37,	0.00001742
1.372,	0.00001832
1.374,	0.00001935
1.376,	0.00002046
1.378,	0.00002177
1.38,	0.00002325
1.382,	0.0000249
1.384,	0.00002682
1.386,	0.0000289
1.388,	0.00003148
1.39,	0.00003428
1.392,	0.00003741
1.394,	0.00004096
1.396,	0.00004518
1.398,	0.00004991
1.4,	0.00005531
1.402,	0.00006142
1.404,	0.00006853
1.406,	0.00007646
1.408,	0.00008542
1.41,	0.00009553
1.412,	0.000107
1.414,	0.00012
1.416,	0.0001344
1.418,	0.0001506
1.42,	0.0001689
1.422,	0.0001892
1.424,	0.0002115
1.426,	0.0002367
1.428,	0.0002646
1.43,	0.0002951
1.432,	0.0003293
1.434,	0.0003662
1.436,	0.0004071
1.438,	0.0004519
1.44,	0.000501
1.442,	0.0005544
1.444,	0.0006134
1.446,	0.0006769
1.448,	0.0007461
1.45,	0.0008266
1.452,	0.0009101
1.454,	0.0009975
1.456,	0.00109
1.458,	0.0012
1.46,	0.00131
1.462,	0.00143
1.464,	0.00156
1.466,	0.00169
1.468,	0.00183
1.47,	0.00199
1.472,	0.00215
1.474,	0.00232
1.476,	0.00249
1.478,	0.00278
1.48,	0.00301
1.482,	0.00324
1.484,	0.00344
1.486,	0.00371
1.488,	0.00394
1.49,	0.00439
1.492,	0.00485
1.494,	0.00515
1.496,	0.00551
1.498,	0.00595
1.5,	0.00635
1.502,	0.00692
1.504,	0.00728
1.506,	0.00782
1.508,	0.00855
1.51,	0.00941
1.512,	0.00969
1.514,	0.01006
1.516,	0.01006
1.518,	0.01006
1.52,	0.01006
1.522,	0.01006
1.524,	0.01006
1.526,	0.01006
1.528,	0.01006
1.53,	0.01006
1.532,	0.01006
1.534,	0.01006
1.536,	0.01006
1.538,	0.01006
1.54,	0.01006
1.542,	0.01006
1.544,	0.01006
1.546,	0.01006
1.548,	0.01006
1.55,	0.01006
1.552,	0.01006
1.554,	0.01006
1.556,	0.01006
1.558,	0.01006
1.56,	0.01006
1.562,	0.01006
1.564,	0.01006
1.566,	0.01006
1.568,	0.01006
1.57,	0.01006
1.572,	0.01006
1.574,	0.01006
1.576,	0.01006
1.578,	0.01006
1.58,	0.01006
1.582,	0.01006
1.584,	0.01006
1.586,	0.01006
1.588,	0.01006
1.59,	0.01006
1.592,	0.01006
1.594,	0.01006
1.596,	0.01006
1.597,	0.01006

File: Ru-700.txt
Nov. 30, 2022   16:41:40
Linear Sweep Voltammetry
File: d:\current work\al_oer\data retrieve\batch 0\ru-700.txt
Data Source:  Experiment
Instrument Model:  CHI760E
Header:
Note:

Init E (V) = 0.901

Final E (V) = 1.501

Scan Rate (V/s) = 0.010
Sample Interval (V) = 0.001
Quiet Time (sec) = 2
Sensitivity (A/V) = 0.001
Comp R (ohm) = 4.7

Results:

Channel 1:
Ep = 1.351V
ip = 1.003e-2A
Ah = 6.630e-2C

Potential/V, Current/A

1.098,	2.63E-05
1.1,	0.00002781
1.102,	0.00002569
1.104,	0.00002401
1.106,	0.00002278
1.108,	0.00002173
1.11,	0.00002084
1.112,	0.0000201
1.114,	0.00001945
1.116,	0.000019
1.118,	0.0000186
1.12,	0.00001815
1.122,	0.0000179
1.124,	0.00001764
1.126,	0.00001742
1.128,	0.00001722
1.13,	0.00001704
1.132,	0.00001703
1.134,	0.0000169
1.136,	0.00001678
1.138,	0.00001676
1.14,	0.00001679
1.142,	0.00001674
1.144,	0.00001674
1.146,	0.00001676
1.148,	0.00001689
1.15,	0.0000169
1.152,	0.00001692
1.154,	0.00001703
1.156,	0.00001715
1.158,	0.00001726
1.16,	0.00001738
1.162,	0.00001748
1.164,	0.00001774
1.166,	0.00001786
1.168,	0.00001798
1.17,	0.00001823
1.172,	0.00001838
1.174,	0.00001854
1.176,	0.00001869
1.178,	0.00001888
1.18,	0.0000192
1.182,	0.00001936
1.184,	0.00001948
1.186,	0.00001971
1.188,	0.00002
1.19,	0.00002021
1.192,	0.00002034
1.194,	0.00002057
1.196,	0.00002089
1.198,	0.00002101
1.2,	0.00002111
1.202,	0.00002131
1.204,	0.00002158
1.206,	0.00002169
1.208,	0.00002192
1.21,	0.00002198
1.212,	0.00002222
1.214,	0.0000223
1.216,	0.00002238
1.218,	0.00002251
1.22,	0.00002268
1.222,	0.00002273
1.224,	0.00002278
1.226,	0.00002285
1.228,	0.00002298
1.23,	0.00002303
1.232,	0.000023
1.234,	0.00002314
1.236,	0.00002319
1.238,	0.00002315
1.24,	0.00002314
1.242,	0.00002306
1.244,	0.00002323
1.246,	0.00002317
1.248,	0.00002304
1.25,	0.00002306
1.252,	0.00002311
1.254,	0.00002301
1.256,	0.00002291
1.258,	0.00002281
1.26,	0.00002297
1.262,	0.00002282
1.264,	0.00002269
1.266,	0.00002269
1.268,	0.00002271
1.27,	0.00002257
1.272,	0.00002259
1.274,	0.00002243
1.276,	0.0000225
1.278,	0.00002241
1.28,	0.00002223
1.282,	0.00002228
1.284,	0.00002232
1.286,	0.00002222
1.288,	0.00002213
1.29,	0.00002207
1.292,	0.00002225
1.294,	0.0000221
1.296,	0.00002209
1.298,	0.00002215
1.3,	0.00002222
1.302,	0.00002215
1.304,	0.00002219
1.306,	0.00002217
1.308,	0.00002232
1.31,	0.00002244
1.312,	0.00002235
1.314,	0.00002246
1.316,	0.00002261
1.318,	0.00002272
1.32,	0.00002274
1.322,	0.00002284
1.324,	0.00002317
1.326,	0.00002318
1.328,	0.00002327
1.33,	0.00002347
1.332,	0.00002363
1.334,	0.00002379
1.336,	0.00002397
1.338,	0.00002409
1.34,	0.00002438
1.342,	0.00002454
1.344,	0.00002465
1.346,	0.00002485
1.348,	0.00002517
1.35,	0.00002536
1.352,	0.00002554
1.354,	0.00002577
1.356,	0.00002615
1.358,	0.00002636
1.36,	0.00002662
1.362,	0.00002702
1.364,	0.00002731
1.366,	0.00002764
1.368,	0.00002798
1.37,	0.00002838
1.372,	0.00002894
1.374,	0.00002946
1.376,	0.00002984
1.378,	0.00003048
1.38,	0.00003125
1.382,	0.00003194
1.384,	0.00003273
1.386,	0.00003358
1.388,	0.00003478
1.39,	0.00003575
1.392,	0.00003696
1.394,	0.00003821
1.396,	0.00003985
1.398,	0.00004152
1.4,	0.00004341
1.402,	0.00004549
1.404,	0.00004801
1.406,	0.00005057
1.408,	0.00005347
1.41,	0.0000567
1.412,	0.00006049
1.414,	0.00006445
1.416,	0.00006878
1.418,	0.00007365
1.42,	0.00007948
1.422,	0.00008539
1.424,	0.00009186
1.426,	0.00009913
1.428,	0.0001073
1.43,	0.000116
1.432,	0.0001256
1.434,	0.0001361
1.436,	0.0001479
1.438,	0.0001606
1.44,	0.0001745
1.442,	0.0001897
1.444,	0.0002067
1.446,	0.000225
1.448,	0.0002451
1.45,	0.0002671
1.452,	0.0002919
1.454,	0.0003184
1.456,	0.0003473
1.458,	0.0003791
1.46,	0.0004145
1.462,	0.0004528
1.464,	0.0004953
1.466,	0.0005412
1.468,	0.0005925
1.47,	0.0006478
1.472,	0.000708
1.474,	0.000774
1.476,	0.0008471
1.478,	0.0009265
1.48,	0.00101
1.482,	0.00111
1.484,	0.00121
1.486,	0.00132
1.488,	0.00144
1.49,	0.00157
1.492,	0.00172
1.494,	0.00187
1.496,	0.00203
1.498,	0.00221
1.5,	0.0024
1.502,	0.0026
1.504,	0.00281
1.506,	0.00303
1.508,	0.00326
1.51,	0.00352
1.512,	0.00376
1.514,	0.00403
1.516,	0.0043
1.518,	0.00457
1.52,	0.00485
1.522,	0.00516
1.524,	0.00546
1.526,	0.00577
1.528,	0.00612
1.53,	0.00645
1.532,	0.00679
1.534,	0.00715
1.536,	0.00759
1.538,	0.00799
1.54,	0.00842
1.542,	0.00886
1.544,	0.00933
1.546,	0.00983
1.548,	0.01006
1.55,	0.01006
1.552,	0.01006
1.554,	0.01006
1.556,	0.01006
1.558,	0.01006
1.56,	0.01006
1.562,	0.01006
1.564,	0.01006
1.566,	0.01006
1.568,	0.01006
1.57,	0.01006
1.572,	0.01006
1.574,	0.01006
1.576,	0.01006
1.578,	0.01006
1.58,	0.01006
1.582,	0.01006
1.584,	0.01006
1.586,	0.01006
1.588,	0.01006
1.59,	0.01006
1.592,	0.01006
1.594,	0.01006
1.596,	0.01006
1.598,	0.01006
1.6,	0.01006
1.602,	0.01006
1.604,	0.01006
1.606,	0.01006
1.608,	0.01006
1.61,	0.01006
1.612,	0.01006
1.614,	0.01006
1.616,	0.01006
1.618,	0.01006
1.62,	0.01006
1.622,	0.01006
1.624,	0.01006
1.626,	0.01006
1.628,	0.01006
1.63,	0.01006
1.632,	0.01006
1.634,	0.01006
1.636,	0.01006
1.638,	0.01006
1.64,	0.01006
1.642,	0.01006
1.644,	0.01006
1.646,	0.01006
1.648,	0.01006
1.65,	0.01006
1.652,	0.01006
1.654,	0.01006
1.656,	0.01006
1.658,	0.01006
1.66,	0.01006
1.662,	0.01006
1.664,	0.01006
1.666,	0.01006
1.668,	0.01006
1.67,	0.01006
1.672,	0.01006
1.674,	0.01006
1.676,	0.01006
1.678,	0.01006
1.68,	0.01006
1.682,	0.01006
1.684,	0.01006
1.686,	0.01006
1.688,	0.01006
1.69,	0.01006
1.692,	0.01006
1.694,	0.01006
1.696,	0.01006
1.697,	0.01006