Folder: DASH/Experimental Records and Raw Data/batch2/final500 (part 3)

File: B2_VARIANCE_500#12_Full-262mV.txt
Jan. 19, 2023   12:08:57
Linear Sweep Voltammetry
File: d:\current work\al_oer\electrochemical test data\batch 2\500\B2_VARIANCE_500#12_Full-262mV.txt
Data Source:  Experiment
Instrument Model:  CHI660E
Header:
Note:

Init E (V) = 1.098

Final E (V) = 1.556

Scan Rate (V/s) = 0.010
Sample Interval (V) = 0.001
Quiet Time (sec) = 2
Sensitivity (A/V) = 0.001
Comp R (ohm) = 6.0

Results:

Channel 1:

Potential/V, Current/A
1.098,   7.147e-5
1.100,   6.708e-5
1.102,   5.998e-5
1.104,   5.438e-5
1.106,   5.003e-5
1.108,   4.653e-5
1.110,   4.369e-5
1.112,   4.138e-5
1.114,   3.942e-5
1.116,   3.792e-5
1.118,   3.661e-5
1.120,   3.542e-5
1.122,   3.436e-5
1.124,   3.353e-5
1.126,   3.281e-5
1.128,   3.214e-5
1.130,   3.153e-5
1.132,   3.117e-5
1.134,   3.064e-5
1.136,   3.028e-5
1.138,   2.996e-5
1.140,   2.972e-5
1.142,   2.948e-5
1.144,   2.922e-5
1.146,   2.903e-5
1.148,   2.891e-5
1.150,   2.881e-5
1.152,   2.860e-5
1.154,   2.856e-5
1.156,   2.850e-5
1.158,   2.844e-5
1.160,   2.837e-5
1.162,   2.833e-5
1.164,   2.841e-5
1.166,   2.839e-5
1.168,   2.833e-5
1.170,   2.843e-5
1.172,   2.842e-5
1.174,   2.848e-5
1.176,   2.849e-5
1.178,   2.851e-5
1.180,   2.863e-5
1.182,   2.871e-5
1.184,   2.873e-5
1.186,   2.880e-5
1.188,   2.893e-5
1.190,   2.901e-5
1.192,   2.909e-5
1.194,   2.914e-5
1.196,   2.930e-5
1.198,   2.944e-5
1.200,   2.945e-5
1.202,   2.962e-5
1.204,   2.975e-5
1.206,   2.983e-5
1.208,   2.998e-5
1.210,   3.000e-5
1.212,   3.017e-5
1.214,   3.026e-5
1.216,   3.032e-5
1.218,   3.053e-5
1.220,   3.065e-5
1.222,   3.079e-5
1.224,   3.081e-5
1.226,   3.092e-5
1.228,   3.111e-5
1.230,   3.123e-5
1.232,   3.128e-5
1.234,   3.144e-5
1.236,   3.163e-5
1.238,   3.172e-5
1.240,   3.177e-5
1.242,   3.188e-5
1.244,   3.202e-5
1.246,   3.213e-5
1.248,   3.221e-5
1.250,   3.230e-5
1.252,   3.242e-5
1.254,   3.255e-5
1.256,   3.263e-5
1.258,   3.271e-5
1.260,   3.290e-5
1.262,   3.293e-5
1.264,   3.294e-5
1.266,   3.304e-5
1.268,   3.319e-5
1.270,   3.326e-5
1.272,   3.336e-5
1.274,   3.339e-5
1.276,   3.352e-5
1.278,   3.360e-5
1.280,   3.364e-5
1.282,   3.378e-5
1.284,   3.385e-5
1.286,   3.393e-5
1.288,   3.396e-5
1.290,   3.411e-5
1.292,   3.421e-5
1.294,   3.426e-5
1.296,   3.427e-5
1.298,   3.439e-5
1.300,   3.449e-5
1.302,   3.458e-5
1.304,   3.466e-5
1.306,   3.470e-5
1.308,   3.490e-5
1.310,   3.499e-5
1.312,   3.505e-5
1.314,   3.514e-5
1.316,   3.525e-5
1.318,   3.541e-5
1.320,   3.543e-5
1.322,   3.554e-5
1.324,   3.585e-5
1.326,   3.592e-5
1.328,   3.596e-5
1.330,   3.609e-5
1.332,   3.630e-5
1.334,   3.644e-5
1.336,   3.663e-5
1.338,   3.673e-5
1.340,   3.694e-5
1.342,   3.712e-5
1.344,   3.728e-5
1.346,   3.744e-5
1.348,   3.767e-5
1.350,   3.784e-5
1.352,   3.806e-5
1.354,   3.830e-5
1.356,   3.869e-5
1.358,   3.897e-5
1.360,   3.924e-5
1.362,   3.972e-5
1.364,   4.004e-5
1.366,   4.044e-5
1.368,   4.103e-5
1.370,   4.144e-5
1.372,   4.210e-5
1.374,   4.278e-5
1.376,   4.340e-5
1.378,   4.414e-5
1.380,   4.510e-5
1.382,   4.603e-5
1.384,   4.708e-5
1.386,   4.819e-5
1.388,   4.974e-5
1.390,   5.117e-5
1.392,   5.274e-5
1.394,   5.465e-5
1.396,   5.676e-5
1.398,   5.897e-5
1.400,   6.162e-5
1.402,   6.443e-5
1.404,   6.769e-5
1.406,   7.126e-5
1.408,   7.521e-5
1.410,   7.981e-5
1.412,   8.482e-5
1.414,   9.042e-5
1.416,   9.645e-5
1.418,   1.033e-4
1.420,   1.109e-4
1.422,   1.192e-4
1.424,   1.284e-4
1.426,   1.386e-4
1.428,   1.499e-4
1.430,   1.624e-4
1.432,   1.763e-4
1.434,   1.915e-4
1.436,   2.079e-4
1.438,   2.259e-4
1.440,   2.459e-4
1.442,   2.674e-4
1.444,   2.910e-4
1.446,   3.170e-4
1.448,   3.453e-4
1.450,   3.756e-4
1.452,   4.089e-4
1.454,   4.445e-4
1.456,   4.836e-4
1.458,   5.255e-4
1.460,   5.712e-4
1.462,   6.200e-4
1.464,   6.719e-4
1.466,   7.288e-4
1.468,   7.898e-4
1.470,   8.548e-4
1.472,   9.248e-4
1.474,   9.997e-4
1.476,   1.079e-3
1.478,   1.164e-3
1.480,   1.253e-3
1.482,   1.347e-3
1.484,   1.448e-3
1.486,   1.556e-3
1.488,   1.669e-3
1.490,   1.789e-3
1.492,   1.913e-3
1.494,   2.045e-3
1.496,   2.184e-3
1.498,   2.333e-3
1.500,   2.488e-3
1.502,   2.646e-3
1.504,   2.812e-3
1.506,   2.982e-3
1.508,   3.162e-3
1.510,   3.353e-3
1.512,   3.554e-3
1.514,   3.756e-3
1.516,   3.960e-3
1.518,   4.189e-3
1.520,   4.423e-3
1.522,   4.659e-3
1.524,   4.896e-3
1.526,   5.142e-3
1.528,   5.397e-3
1.530,   5.655e-3
1.532,   5.951e-3
1.534,   6.241e-3
1.536,   6.560e-3
1.538,   6.872e-3
1.540,   7.219e-3
1.542,   7.557e-3
1.544,   7.880e-3
1.546,   8.243e-3
1.548,   8.591e-3
1.550,   9.000e-3
1.552,   9.327e-3
1.554,   9.687e-3
1.556,   1.006e-2

File: B2_VARIANCE_500#14_High_Quality-319mV.txt
Jan. 19, 2023   13:45:58
Linear Sweep Voltammetry
File: d:\current work\al_oer\electrochemical test data\batch 2\500\B2_VARIANCE_500#14_High_Quality-319mV.txt
Data Source:  Experiment
Instrument Model:  CHI660E
Header:
Note:

Init E (V) = 1.098

Final E (V) = 1.697

Scan Rate (V/s) = 0.010
Sample Interval (V) = 0.001
Quiet Time (sec) = 2
Sensitivity (A/V) = 0.001
Comp R (ohm) = 5.4

Results:

Channel 1:

Potential/V, Current/A
1.098,   3.790e-5
1.100,   3.492e-5
1.102,   3.115e-5
1.104,   2.814e-5
1.106,   2.580e-5
1.108,   2.387e-5
1.110,   2.236e-5
1.112,   2.109e-5
1.114,   2.004e-5
1.116,   1.912e-5
1.118,   1.838e-5
1.120,   1.772e-5
1.122,   1.718e-5
1.124,   1.676e-5
1.126,   1.636e-5
1.128,   1.600e-5
1.130,   1.570e-5
1.132,   1.548e-5
1.134,   1.525e-5
1.136,   1.505e-5
1.138,   1.488e-5
1.140,   1.477e-5
1.142,   1.467e-5
1.144,   1.455e-5
1.146,   1.449e-5
1.148,   1.446e-5
1.150,   1.443e-5
1.152,   1.437e-5
1.154,   1.436e-5
1.156,   1.438e-5
1.158,   1.435e-5
1.160,   1.436e-5
1.162,   1.438e-5
1.164,   1.443e-5
1.166,   1.443e-5
1.168,   1.445e-5
1.170,   1.453e-5
1.172,   1.461e-5
1.174,   1.465e-5
1.176,   1.471e-5
1.178,   1.477e-5
1.180,   1.486e-5
1.182,   1.495e-5
1.184,   1.499e-5
1.186,   1.507e-5
1.188,   1.518e-5
1.190,   1.527e-5
1.192,   1.532e-5
1.194,   1.542e-5
1.196,   1.555e-5
1.198,   1.565e-5
1.200,   1.574e-5
1.202,   1.583e-5
1.204,   1.598e-5
1.206,   1.607e-5
1.208,   1.616e-5
1.210,   1.625e-5
1.212,   1.638e-5
1.214,   1.647e-5
1.216,   1.654e-5
1.218,   1.666e-5
1.220,   1.677e-5
1.222,   1.688e-5
1.224,   1.699e-5
1.226,   1.710e-5
1.228,   1.724e-5
1.230,   1.734e-5
1.232,   1.744e-5
1.234,   1.758e-5
1.236,   1.766e-5
1.238,   1.777e-5
1.240,   1.791e-5
1.242,   1.799e-5
1.244,   1.815e-5
1.246,   1.826e-5
1.248,   1.836e-5
1.250,   1.845e-5
1.252,   1.859e-5
1.254,   1.870e-5
1.256,   1.880e-5
1.258,   1.889e-5
1.260,   1.904e-5
1.262,   1.916e-5
1.264,   1.925e-5
1.266,   1.935e-5
1.268,   1.951e-5
1.270,   1.959e-5
1.272,   1.969e-5
1.274,   1.978e-5
1.276,   1.991e-5
1.278,   2.002e-5
1.280,   2.015e-5
1.282,   2.023e-5
1.284,   2.033e-5
1.286,   2.044e-5
1.288,   2.053e-5
1.290,   2.065e-5
1.292,   2.080e-5
1.294,   2.090e-5
1.296,   2.100e-5
1.298,   2.110e-5
1.300,   2.122e-5
1.302,   2.133e-5
1.304,   2.142e-5
1.306,   2.157e-5
1.308,   2.166e-5
1.310,   2.178e-5
1.312,   2.189e-5
1.314,   2.202e-5
1.316,   2.217e-5
1.318,   2.225e-5
1.320,   2.238e-5
1.322,   2.247e-5
1.324,   2.268e-5
1.326,   2.275e-5
1.328,   2.288e-5
1.330,   2.299e-5
1.332,   2.316e-5
1.334,   2.328e-5
1.336,   2.342e-5
1.338,   2.355e-5
1.340,   2.373e-5
1.342,   2.384e-5
1.344,   2.398e-5
1.346,   2.415e-5
1.348,   2.433e-5
1.350,   2.444e-5
1.352,   2.462e-5
1.354,   2.472e-5
1.356,   2.496e-5
1.358,   2.512e-5
1.360,   2.531e-5
1.362,   2.552e-5
1.364,   2.574e-5
1.366,   2.591e-5
1.368,   2.609e-5
1.370,   2.630e-5
1.372,   2.655e-5
1.374,   2.679e-5
1.376,   2.703e-5
1.378,   2.726e-5
1.380,   2.756e-5
1.382,   2.784e-5
1.384,   2.816e-5
1.386,   2.847e-5
1.388,   2.889e-5
1.390,   2.929e-5
1.392,   2.968e-5
1.394,   3.017e-5
1.396,   3.067e-5
1.398,   3.120e-5
1.400,   3.183e-5
1.402,   3.244e-5
1.404,   3.317e-5
1.406,   3.398e-5
1.408,   3.491e-5
1.410,   3.586e-5
1.412,   3.698e-5
1.414,   3.806e-5
1.416,   3.937e-5
1.418,   4.081e-5
1.420,   4.245e-5
1.422,   4.426e-5
1.424,   4.623e-5
1.426,   4.850e-5
1.428,   5.099e-5
1.430,   5.372e-5
1.432,   5.662e-5
1.434,   5.988e-5
1.436,   6.353e-5
1.438,   6.751e-5
1.440,   7.186e-5
1.442,   7.668e-5
1.444,   8.196e-5
1.446,   8.762e-5
1.448,   9.371e-5
1.450,   1.004e-4
1.452,   1.078e-4
1.454,   1.156e-4
1.456,   1.242e-4
1.458,   1.335e-4
1.460,   1.435e-4
1.462,   1.543e-4
1.464,   1.660e-4
1.466,   1.784e-4
1.468,   1.918e-4
1.470,   2.059e-4
1.472,   2.213e-4
1.474,   2.377e-4
1.476,   2.552e-4
1.478,   2.739e-4
1.480,   2.939e-4
1.482,   3.149e-4
1.484,   3.372e-4
1.486,   3.604e-4
1.488,   3.860e-4
1.490,   4.124e-4
1.492,   4.403e-4
1.494,   4.688e-4
1.496,   4.990e-4
1.498,   5.307e-4
1.500,   5.646e-4
1.502,   5.978e-4
1.504,   6.335e-4
1.506,   6.722e-4
1.508,   7.123e-4
1.510,   7.542e-4
1.512,   7.964e-4
1.514,   8.412e-4
1.516,   8.865e-4
1.518,   9.361e-4
1.520,   9.848e-4
1.522,   1.035e-3
1.524,   1.087e-3
1.526,   1.143e-3
1.528,   1.200e-3
1.530,   1.259e-3
1.532,   1.321e-3
1.534,   1.382e-3
1.536,   1.445e-3
1.538,   1.509e-3
1.540,   1.578e-3
1.542,   1.648e-3
1.544,   1.720e-3
1.546,   1.794e-3
1.548,   1.870e-3
1.550,   1.947e-3
1.552,   2.021e-3
1.554,   2.103e-3
1.556,   2.185e-3
1.558,   2.271e-3
1.560,   2.361e-3
1.562,   2.448e-3
1.564,   2.537e-3
1.566,   2.629e-3
1.568,   2.732e-3
1.570,   2.828e-3
1.572,   2.926e-3
1.574,   3.028e-3
1.576,   3.132e-3
1.578,   3.234e-3
1.580,   3.341e-3
1.582,   3.450e-3
1.584,   3.553e-3
1.586,   3.662e-3
1.588,   3.772e-3
1.590,   3.884e-3
1.592,   4.000e-3
1.594,   4.121e-3
1.596,   4.243e-3
1.598,   4.361e-3
1.600,   4.491e-3
1.602,   4.607e-3
1.604,   4.733e-3
1.606,   4.860e-3
1.608,   4.990e-3
1.610,   5.120e-3
1.612,   5.251e-3
1.614,   5.371e-3
1.616,   5.498e-3
1.618,   5.649e-3
1.620,   5.781e-3
1.622,   5.923e-3
1.624,   6.062e-3
1.626,   6.201e-3
1.628,   6.319e-3
1.630,   6.446e-3
1.632,   6.600e-3
1.634,   6.746e-3
1.636,   6.906e-3
1.638,   7.166e-3
1.640,   7.314e-3
1.642,   7.454e-3
1.644,   7.602e-3
1.646,   7.780e-3
1.648,   7.923e-3
1.650,   8.070e-3
1.652,   8.227e-3
1.654,   8.354e-3
1.656,   8.527e-3
1.658,   8.684e-3
1.660,   8.815e-3
1.662,   8.956e-3
1.664,   9.083e-3
1.666,   9.269e-3
1.668,   9.435e-3
1.670,   9.609e-3
1.672,   9.770e-3
1.674,   9.896e-3
1.676,   1.002e-2
1.678,   1.006e-2
1.680,   1.006e-2
1.682,   1.006e-2
1.684,   1.006e-2
1.686,   1.006e-2
1.688,   1.006e-2
1.690,   1.006e-2
1.692,   1.006e-2
1.694,   1.006e-2
1.696,   1.006e-2
1.697,   1.006e-2

File: B2_VARIANCE_500#16_Full-321mV.txt
Jan. 19, 2023   13:24:56
Linear Sweep Voltammetry
File: d:\current work\al_oer\electrochemical test data\batch 2\500\B2_VARIANCE_500#16_Full-321mV.txt
Data Source:  Experiment
Instrument Model:  CHI660E
Header:
Note:

Init E (V) = 1.101

Final E (V) = 1.703

Scan Rate (V/s) = 0.010
Sample Interval (V) = 0.001
Quiet Time (sec) = 2
Sensitivity (A/V) = 0.001
Comp R (ohm) = 5.7

Results:

Channel 1:

Potential/V, Current/A
1.101,   3.096e-5
1.104,   2.582e-5
1.107,   2.161e-5
1.110,   1.867e-5
1.113,   1.662e-5
1.116,   1.513e-5
1.119,   1.388e-5
1.122,   1.300e-5
1.125,   1.229e-5
1.128,   1.171e-5
1.131,   1.120e-5
1.134,   1.081e-5
1.137,   1.052e-5
1.140,   1.026e-5
1.143,   1.002e-5
1.146,   9.826e-6
1.149,   9.703e-6
1.152,   9.532e-6
1.155,   9.442e-6
1.158,   9.391e-6
1.161,   9.298e-6
1.164,   9.251e-6
1.167,   9.236e-6
1.170,   9.246e-6
1.173,   9.185e-6
1.176,   9.193e-6
1.179,   9.196e-6
1.182,   9.214e-6
1.185,   9.252e-6
1.188,   9.262e-6
1.191,   9.320e-6
1.194,   9.363e-6
1.197,   9.360e-6
1.200,   9.440e-6
1.203,   9.515e-6
1.206,   9.577e-6
1.209,   9.659e-6
1.212,   9.723e-6
1.215,   9.777e-6
1.218,   9.888e-6
1.221,   9.942e-6
1.224,   1.000e-5
1.227,   1.010e-5
1.230,   1.018e-5
1.233,   1.025e-5
1.236,   1.033e-5
1.239,   1.042e-5
1.242,   1.054e-5
1.245,   1.058e-5
1.248,   1.064e-5
1.251,   1.071e-5
1.254,   1.082e-5
1.257,   1.090e-5
1.260,   1.099e-5
1.263,   1.106e-5
1.266,   1.114e-5
1.269,   1.123e-5
1.272,   1.132e-5
1.275,   1.142e-5
1.278,   1.155e-5
1.281,   1.162e-5
1.284,   1.177e-5
1.287,   1.184e-5
1.290,   1.194e-5
1.293,   1.208e-5
1.296,   1.226e-5
1.299,   1.234e-5
1.302,   1.252e-5
1.305,   1.268e-5
1.308,   1.289e-5
1.311,   1.303e-5
1.314,   1.325e-5
1.317,   1.342e-5
1.320,   1.368e-5
1.323,   1.390e-5
1.326,   1.421e-5
1.329,   1.447e-5
1.332,   1.481e-5
1.335,   1.511e-5
1.338,   1.541e-5
1.341,   1.579e-5
1.344,   1.624e-5
1.347,   1.665e-5
1.350,   1.705e-5
1.353,   1.753e-5
1.356,   1.807e-5
1.359,   1.855e-5
1.362,   1.912e-5
1.365,   1.968e-5
1.368,   2.029e-5
1.371,   2.096e-5
1.374,   2.158e-5
1.377,   2.231e-5
1.380,   2.308e-5
1.383,   2.390e-5
1.386,   2.473e-5
1.389,   2.565e-5
1.392,   2.666e-5
1.395,   2.768e-5
1.398,   2.889e-5
1.401,   3.008e-5
1.404,   3.153e-5
1.407,   3.312e-5
1.410,   3.492e-5
1.413,   3.690e-5
1.416,   3.911e-5
1.419,   4.164e-5
1.422,   4.466e-5
1.425,   4.806e-5
1.428,   5.197e-5
1.431,   5.640e-5
1.434,   6.138e-5
1.437,   6.717e-5
1.440,   7.373e-5
1.443,   8.133e-5
1.446,   8.980e-5
1.449,   9.942e-5
1.452,   1.103e-4
1.455,   1.225e-4
1.458,   1.362e-4
1.461,   1.515e-4
1.464,   1.688e-4
1.467,   1.878e-4
1.470,   2.088e-4
1.473,   2.323e-4
1.476,   2.581e-4
1.479,   2.866e-4
1.482,   3.179e-4
1.485,   3.518e-4
1.488,   3.888e-4
1.491,   4.289e-4
1.494,   4.724e-4
1.497,   5.188e-4
1.500,   5.687e-4
1.503,   6.221e-4
1.506,   6.792e-4
1.509,   7.394e-4
1.512,   8.034e-4
1.515,   8.704e-4
1.518,   9.413e-4
1.521,   1.016e-3
1.524,   1.093e-3
1.527,   1.173e-3
1.530,   1.256e-3
1.533,   1.343e-3
1.536,   1.433e-3
1.539,   1.525e-3
1.542,   1.620e-3
1.545,   1.718e-3
1.548,   1.820e-3
1.551,   1.923e-3
1.554,   2.029e-3
1.557,   2.139e-3
1.560,   2.251e-3
1.563,   2.365e-3
1.566,   2.482e-3
1.569,   2.601e-3
1.572,   2.723e-3
1.575,   2.845e-3
1.578,   2.969e-3
1.581,   3.096e-3
1.584,   3.224e-3
1.587,   3.365e-3
1.590,   3.495e-3
1.593,   3.628e-3
1.596,   3.765e-3
1.599,   3.900e-3
1.602,   4.043e-3
1.605,   4.179e-3
1.608,   4.321e-3
1.611,   4.464e-3
1.614,   4.604e-3
1.617,   4.747e-3
1.620,   4.891e-3
1.623,   5.056e-3
1.626,   5.191e-3
1.629,   5.326e-3
1.632,   5.463e-3
1.635,   5.586e-3
1.638,   5.728e-3
1.641,   5.957e-3
1.644,   6.232e-3
1.647,   6.406e-3
1.650,   6.534e-3
1.653,   6.697e-3
1.656,   6.828e-3
1.659,   6.985e-3
1.662,   7.090e-3
1.665,   7.218e-3
1.668,   7.366e-3
1.671,   7.503e-3
1.674,   8.476e-3
1.677,   8.442e-3
1.680,   8.529e-3
1.683,   8.578e-3
1.686,   8.638e-3
1.689,   8.710e-3
1.692,   8.838e-3
1.695,   8.938e-3
1.698,   9.047e-3
1.701,   9.122e-3
1.703,   9.145e-3

File: B2_VARIANCE_500#17_High_Quality-350mV.txt
Jan. 19, 2023   14:07:58
Linear Sweep Voltammetry
File: d:\current work\al_oer\electrochemical test data\batch 2\500\B2_VARIANCE_500#17_High_Quality-350mV.txt
Data Source:  Experiment
Instrument Model:  CHI660E
Header:
Note:

Init E (V) = 1.099

Final E (V) = 1.754

Scan Rate (V/s) = 0.010
Sample Interval (V) = 0.001
Quiet Time (sec) = 2
Sensitivity (A/V) = 0.001
Comp R (ohm) = 5.9

Results:

Channel 1:

Potential/V, Current/A
1.099,   3.813e-5
1.102,   3.346e-5
1.105,   2.880e-5
1.108,   2.549e-5
1.111,   2.304e-5
1.114,   2.119e-5
1.117,   1.969e-5
1.120,   1.856e-5
1.123,   1.759e-5
1.126,   1.684e-5
1.129,   1.620e-5
1.132,   1.568e-5
1.135,   1.524e-5
1.138,   1.487e-5
1.141,   1.454e-5
1.144,   1.430e-5
1.147,   1.405e-5
1.150,   1.387e-5
1.153,   1.373e-5
1.156,   1.363e-5
1.159,   1.353e-5
1.162,   1.346e-5
1.165,   1.343e-5
1.168,   1.335e-5
1.171,   1.334e-5
1.174,   1.330e-5
1.177,   1.330e-5
1.180,   1.333e-5
1.183,   1.339e-5
1.186,   1.339e-5
1.189,   1.346e-5
1.192,   1.349e-5
1.195,   1.353e-5
1.198,   1.359e-5
1.201,   1.364e-5
1.204,   1.373e-5
1.207,   1.382e-5
1.210,   1.391e-5
1.213,   1.400e-5
1.216,   1.409e-5
1.219,   1.418e-5
1.222,   1.432e-5
1.225,   1.443e-5
1.228,   1.453e-5
1.231,   1.468e-5
1.234,   1.479e-5
1.237,   1.495e-5
1.240,   1.505e-5
1.243,   1.517e-5
1.246,   1.534e-5
1.249,   1.548e-5
1.252,   1.561e-5
1.255,   1.577e-5
1.258,   1.595e-5
1.261,   1.611e-5
1.264,   1.625e-5
1.267,   1.640e-5
1.270,   1.651e-5
1.273,   1.675e-5
1.276,   1.689e-5
1.279,   1.705e-5
1.282,   1.724e-5
1.285,   1.738e-5
1.288,   1.757e-5
1.291,   1.773e-5
1.294,   1.790e-5
1.297,   1.811e-5
1.300,   1.830e-5
1.303,   1.850e-5
1.306,   1.868e-5
1.309,   1.887e-5
1.312,   1.914e-5
1.315,   1.929e-5
1.318,   1.951e-5
1.321,   1.973e-5
1.324,   2.000e-5
1.327,   2.024e-5
1.330,   2.049e-5
1.333,   2.069e-5
1.336,   2.095e-5
1.339,   2.122e-5
1.342,   2.144e-5
1.345,   2.170e-5
1.348,   2.200e-5
1.351,   2.233e-5
1.354,   2.262e-5
1.357,   2.292e-5
1.360,   2.324e-5
1.363,   2.358e-5
1.366,   2.389e-5
1.369,   2.422e-5
1.372,   2.458e-5
1.375,   2.495e-5
1.378,   2.532e-5
1.381,   2.570e-5
1.384,   2.611e-5
1.387,   2.654e-5
1.390,   2.697e-5
1.393,   2.739e-5
1.396,   2.786e-5
1.399,   2.841e-5
1.402,   2.894e-5
1.405,   2.955e-5
1.408,   3.025e-5
1.411,   3.098e-5
1.414,   3.185e-5
1.417,   3.284e-5
1.420,   3.396e-5
1.423,   3.524e-5
1.426,   3.665e-5
1.429,   3.819e-5
1.432,   4.012e-5
1.435,   4.226e-5
1.438,   4.476e-5
1.441,   4.771e-5
1.444,   5.103e-5
1.447,   5.478e-5
1.450,   5.915e-5
1.453,   6.409e-5
1.456,   6.968e-5
1.459,   7.604e-5
1.462,   8.321e-5
1.465,   9.123e-5
1.468,   1.002e-4
1.471,   1.103e-4
1.474,   1.215e-4
1.477,   1.339e-4
1.480,   1.476e-4
1.483,   1.629e-4
1.486,   1.803e-4
1.489,   1.988e-4
1.492,   2.192e-4
1.495,   2.415e-4
1.498,   2.654e-4
1.501,   2.912e-4
1.504,   3.200e-4
1.507,   3.500e-4
1.510,   3.828e-4
1.513,   4.181e-4
1.516,   4.554e-4
1.519,   4.962e-4
1.522,   5.388e-4
1.525,   5.838e-4
1.528,   6.319e-4
1.531,   6.829e-4
1.534,   7.363e-4
1.537,   7.938e-4
1.540,   8.530e-4
1.543,   9.148e-4
1.546,   9.804e-4
1.549,   1.050e-3
1.552,   1.121e-3
1.555,   1.195e-3
1.558,   1.272e-3
1.561,   1.354e-3
1.564,   1.438e-3
1.567,   1.526e-3
1.570,   1.616e-3
1.573,   1.710e-3
1.576,   1.808e-3
1.579,   1.910e-3
1.582,   2.015e-3
1.585,   2.123e-3
1.588,   2.233e-3
1.591,   2.352e-3
1.594,   2.470e-3
1.597,   2.592e-3
1.600,   2.716e-3
1.603,   2.846e-3
1.606,   2.977e-3
1.609,   3.119e-3
1.612,   3.266e-3
1.615,   3.409e-3
1.618,   3.565e-3
1.621,   3.709e-3
1.624,   3.868e-3
1.627,   4.023e-3
1.630,   4.188e-3
1.633,   4.357e-3
1.636,   4.530e-3
1.639,   4.701e-3
1.642,   4.885e-3
1.645,   5.070e-3
1.648,   5.253e-3
1.651,   5.436e-3
1.654,   5.633e-3
1.657,   5.820e-3
1.660,   6.012e-3
1.663,   6.213e-3
1.666,   6.414e-3
1.669,   6.613e-3
1.672,   6.828e-3
1.675,   7.037e-3
1.678,   7.240e-3
1.681,   7.455e-3
1.684,   7.668e-3
1.687,   7.871e-3
1.690,   8.074e-3
1.693,   8.291e-3
1.696,   8.502e-3
1.699,   8.723e-3
1.702,   8.924e-3
1.705,   9.128e-3
1.708,   9.344e-3
1.711,   9.543e-3
1.714,   9.756e-3
1.717,   9.961e-3
1.720,   1.006e-2
1.723,   1.006e-2
1.726,   1.006e-2
1.729,   1.006e-2
1.732,   1.006e-2
1.735,   1.006e-2
1.738,   1.006e-2
1.741,   1.006e-2
1.744,   1.006e-2
1.747,   1.006e-2
1.750,   1.006e-2
1.753,   1.006e-2
1.754,   1.006e-2