Folder: DASH/Experimental Records and Raw Data/batch2/final400 (part 2)

File: B2_BEST_400#15_High_Quality-296mV.txt
Jan. 18, 2023   14:53:32
Linear Sweep Voltammetry
File: d:\current work\al_oer\electrochemical test data\batch 2\400\B2_BEST_400#15_High_Quality-296mV.txt
Data Source:  Experiment
Instrument Model:  CHI660E
Header:
Note:

Init E (V) = 1.099

Final E (V) = 1.745

Scan Rate (V/s) = 0.010
Sample Interval (V) = 0.001
Quiet Time (sec) = 2
Sensitivity (A/V) = 0.001
Comp R (ohm) = 5.5

Results:

Channel 1:
Ep = 1.513V
ip = 6.290e-3A
Ah = 1.580e-1C

Potential/V, Current/A
1.099,   1.602e-4
1.102,   1.376e-4
1.105,   1.195e-4
1.108,   1.053e-4
1.111,   9.434e-5
1.114,   8.546e-5
1.117,   7.828e-5
1.120,   7.232e-5
1.123,   6.750e-5
1.126,   6.336e-5
1.129,   5.997e-5
1.132,   5.702e-5
1.135,   5.454e-5
1.138,   5.241e-5
1.141,   5.050e-5
1.144,   4.884e-5
1.147,   4.740e-5
1.150,   4.616e-5
1.153,   4.507e-5
1.156,   4.414e-5
1.159,   4.329e-5
1.162,   4.251e-5
1.165,   4.186e-5
1.168,   4.124e-5
1.171,   4.077e-5
1.174,   4.029e-5
1.177,   3.993e-5
1.180,   3.951e-5
1.183,   3.924e-5
1.186,   3.900e-5
1.189,   3.878e-5
1.192,   3.848e-5
1.195,   3.840e-5
1.198,   3.831e-5
1.201,   3.815e-5
1.204,   3.804e-5
1.207,   3.796e-5
1.210,   3.794e-5
1.213,   3.789e-5
1.216,   3.794e-5
1.219,   3.788e-5
1.222,   3.794e-5
1.225,   3.795e-5
1.228,   3.798e-5
1.231,   3.810e-5
1.234,   3.811e-5
1.237,   3.822e-5
1.240,   3.831e-5
1.243,   3.846e-5
1.246,   3.863e-5
1.249,   3.873e-5
1.252,   3.884e-5
1.255,   3.903e-5
1.258,   3.917e-5
1.261,   3.933e-5
1.264,   3.946e-5
1.267,   3.956e-5
1.270,   3.979e-5
1.273,   3.995e-5
1.276,   4.015e-5
1.279,   4.031e-5
1.282,   4.053e-5
1.285,   4.070e-5
1.288,   4.096e-5
1.291,   4.109e-5
1.294,   4.132e-5
1.297,   4.159e-5
1.300,   4.182e-5
1.303,   4.208e-5
1.306,   4.365e-5
1.309,   4.293e-5
1.312,   4.316e-5
1.315,   4.342e-5
1.318,   4.382e-5
1.321,   4.412e-5
1.324,   4.453e-5
1.327,   4.500e-5
1.330,   4.554e-5
1.333,   4.604e-5
1.336,   4.661e-5
1.339,   4.733e-5
1.342,   4.806e-5
1.345,   4.885e-5
1.348,   4.972e-5
1.351,   5.068e-5
1.354,   5.172e-5
1.357,   5.271e-5
1.360,   5.379e-5
1.363,   5.502e-5
1.366,   5.627e-5
1.369,   5.770e-5
1.372,   5.908e-5
1.375,   6.064e-5
1.378,   6.223e-5
1.381,   6.388e-5
1.384,   6.560e-5
1.387,   6.743e-5
1.390,   6.957e-5
1.393,   7.180e-5
1.396,   7.420e-5
1.399,   7.693e-5
1.402,   7.993e-5
1.405,   8.325e-5
1.408,   8.689e-5
1.411,   9.107e-5
1.414,   9.581e-5
1.417,   1.012e-4
1.420,   1.072e-4
1.423,   1.144e-4
1.426,   1.224e-4
1.429,   1.315e-4
1.432,   1.418e-4
1.435,   1.534e-4
1.438,   1.666e-4
1.441,   1.814e-4
1.444,   1.978e-4
1.447,   2.162e-4
1.450,   2.365e-4
1.453,   2.594e-4
1.456,   2.846e-4
1.459,   3.125e-4
1.462,   3.432e-4
1.465,   3.768e-4
1.468,   4.135e-4
1.471,   4.534e-4
1.474,   4.966e-4
1.477,   5.442e-4
1.480,   5.955e-4
1.483,   6.507e-4
1.486,   7.103e-4
1.489,   7.747e-4
1.492,   8.427e-4
1.495,   9.167e-4
1.498,   9.938e-4
1.501,   1.075e-3
1.504,   1.162e-3
1.507,   1.253e-3
1.510,   1.347e-3
1.513,   1.446e-3
1.516,   1.548e-3
1.519,   1.655e-3
1.522,   1.763e-3
1.525,   1.878e-3
1.528,   1.993e-3
1.531,   2.110e-3
1.534,   2.231e-3
1.537,   2.379e-3
1.540,   2.511e-3
1.543,   2.636e-3
1.546,   2.764e-3
1.549,   2.893e-3
1.552,   3.025e-3
1.555,   3.163e-3
1.558,   3.295e-3
1.561,   3.430e-3
1.564,   3.578e-3
1.567,   3.717e-3
1.570,   3.855e-3
1.573,   3.988e-3
1.576,   4.140e-3
1.579,   4.272e-3
1.582,   4.415e-3
1.585,   4.565e-3
1.588,   4.723e-3
1.591,   4.990e-3
1.594,   5.123e-3
1.597,   5.263e-3
1.600,   5.433e-3
1.603,   5.576e-3
1.606,   5.707e-3
1.609,   5.868e-3
1.612,   6.007e-3
1.615,   6.165e-3
1.618,   6.324e-3
1.621,   6.485e-3
1.624,   6.625e-3
1.627,   6.769e-3
1.630,   6.936e-3
1.633,   7.085e-3
1.636,   7.221e-3
1.639,   7.334e-3
1.642,   7.491e-3
1.645,   7.612e-3
1.648,   7.732e-3
1.651,   7.833e-3
1.654,   8.010e-3
1.657,   8.211e-3
1.660,   8.313e-3
1.663,   8.333e-3
1.666,   8.489e-3
1.669,   8.524e-3
1.672,   8.607e-3
1.675,   8.636e-3
1.678,   8.713e-3
1.681,   8.910e-3
1.684,   8.993e-3
1.687,   8.985e-3
1.690,   9.010e-3
1.693,   9.082e-3
1.696,   9.087e-3
1.699,   9.121e-3
1.702,   9.057e-3
1.705,   9.043e-3
1.708,   9.081e-3
1.711,   9.196e-3
1.714,   9.144e-3
1.717,   9.146e-3
1.720,   9.066e-3
1.723,   9.047e-3
1.726,   9.037e-3
1.729,   9.009e-3
1.732,   8.947e-3
1.735,   8.993e-3
1.738,   8.916e-3
1.741,   8.897e-3
1.744,   8.805e-3
1.745,   8.794e-3

File: B2_BEST_400#18_Full-272mV.txt
Jan. 14, 2023   16:40:16
Linear Sweep Voltammetry
File: d:\current work\al_oer\electrochemical test data\batch 2\400\B2_BEST_400#18_Full-272mV.txt
Data Source:  Experiment
Instrument Model:  CHI660E
Header:
Note:

Init E (V) = 1.098

Final E (V) = 1.580

Scan Rate (V/s) = 0.010
Sample Interval (V) = 0.001
Quiet Time (sec) = 2
Sensitivity (A/V) = 0.001
Comp R (ohm) = 5.7

Results:

Channel 1:

Potential/V, Current/A
1.098,   3.306e-4
1.100,   2.986e-4
1.102,   2.725e-4
1.104,   2.519e-4
1.106,   2.342e-4
1.108,   2.192e-4
1.110,   2.064e-4
1.112,   1.954e-4
1.114,   1.862e-4
1.116,   1.780e-4
1.118,   1.707e-4
1.120,   1.641e-4
1.122,   1.580e-4
1.124,   1.530e-4
1.126,   1.483e-4
1.128,   1.434e-4
1.130,   1.389e-4
1.132,   1.350e-4
1.134,   1.317e-4
1.136,   1.287e-4
1.138,   1.257e-4
1.140,   1.230e-4
1.142,   1.202e-4
1.144,   1.177e-4
1.146,   1.154e-4
1.148,   1.133e-4
1.150,   1.111e-4
1.152,   1.093e-4
1.154,   1.073e-4
1.156,   1.059e-4
1.158,   1.043e-4
1.160,   1.030e-4
1.162,   1.016e-4
1.164,   1.001e-4
1.166,   9.888e-5
1.168,   9.775e-5
1.170,   9.694e-5
1.172,   9.565e-5
1.174,   9.471e-5
1.176,   9.373e-5
1.178,   9.292e-5
1.180,   9.194e-5
1.182,   9.112e-5
1.184,   9.041e-5
1.186,   8.972e-5
1.188,   8.917e-5
1.190,   8.867e-5
1.192,   8.813e-5
1.194,   8.753e-5
1.196,   8.699e-5
1.198,   8.649e-5
1.200,   8.618e-5
1.202,   8.574e-5
1.204,   8.539e-5
1.206,   8.492e-5
1.208,   8.464e-5
1.210,   8.422e-5
1.212,   8.401e-5
1.214,   8.395e-5
1.216,   8.361e-5
1.218,   8.336e-5
1.220,   8.325e-5
1.222,   8.322e-5
1.224,   8.295e-5
1.226,   8.282e-5
1.228,   8.286e-5
1.230,   8.265e-5
1.232,   8.254e-5
1.234,   8.243e-5
1.236,   8.240e-5
1.238,   8.237e-5
1.240,   8.238e-5
1.242,   8.240e-5
1.244,   8.243e-5
1.246,   8.237e-5
1.248,   8.230e-5
1.250,   8.257e-5
1.252,   8.257e-5
1.254,   8.257e-5
1.256,   8.252e-5
1.258,   8.233e-5
1.260,   8.253e-5
1.262,   8.256e-5
1.264,   8.261e-5
1.266,   8.267e-5
1.268,   8.261e-5
1.270,   8.256e-5
1.272,   8.254e-5
1.274,   8.275e-5
1.276,   8.278e-5
1.278,   8.292e-5
1.280,   8.288e-5
1.282,   8.299e-5
1.284,   8.305e-5
1.286,   8.308e-5
1.288,   8.325e-5
1.290,   8.332e-5
1.292,   8.351e-5
1.294,   8.367e-5
1.296,   8.374e-5
1.298,   8.398e-5
1.300,   8.428e-5
1.302,   8.452e-5
1.304,   8.468e-5
1.306,   8.499e-5
1.308,   8.498e-5
1.310,   8.526e-5
1.312,   8.541e-5
1.314,   8.556e-5
1.316,   8.578e-5
1.318,   8.612e-5
1.320,   8.641e-5
1.322,   8.676e-5
1.324,   8.728e-5
1.326,   8.765e-5
1.328,   8.795e-5
1.330,   8.818e-5
1.332,   8.854e-5
1.334,   8.910e-5
1.336,   8.963e-5
1.338,   8.999e-5
1.340,   9.064e-5
1.342,   9.126e-5
1.344,   9.186e-5
1.346,   9.258e-5
1.348,   9.329e-5
1.350,   9.414e-5
1.352,   9.501e-5
1.354,   9.586e-5
1.356,   9.693e-5
1.358,   9.797e-5
1.360,   9.923e-5
1.362,   1.006e-4
1.364,   1.020e-4
1.366,   1.036e-4
1.368,   1.054e-4
1.370,   1.073e-4
1.372,   1.095e-4
1.374,   1.122e-4
1.376,   1.149e-4
1.378,   1.181e-4
1.380,   1.216e-4
1.382,   1.255e-4
1.384,   1.298e-4
1.386,   1.343e-4
1.388,   1.400e-4
1.390,   1.459e-4
1.392,   1.523e-4
1.394,   1.597e-4
1.396,   1.677e-4
1.398,   1.766e-4
1.400,   1.865e-4
1.402,   1.969e-4
1.404,   2.082e-4
1.406,   2.202e-4
1.408,   2.334e-4
1.410,   2.476e-4
1.412,   2.628e-4
1.414,   2.778e-4
1.416,   2.943e-4
1.418,   3.138e-4
1.420,   3.342e-4
1.422,   3.556e-4
1.424,   3.801e-4
1.426,   4.045e-4
1.428,   4.300e-4
1.430,   4.567e-4
1.432,   4.849e-4
1.434,   5.136e-4
1.436,   5.467e-4
1.438,   5.760e-4
1.440,   6.084e-4
1.442,   6.398e-4
1.444,   6.756e-4
1.446,   7.137e-4
1.448,   7.514e-4
1.450,   7.922e-4
1.452,   8.334e-4
1.454,   8.736e-4
1.456,   9.173e-4
1.458,   9.610e-4
1.460,   1.005e-3
1.462,   1.052e-3
1.464,   1.098e-3
1.466,   1.146e-3
1.468,   1.193e-3
1.470,   1.237e-3
1.472,   1.284e-3
1.474,   1.333e-3
1.476,   1.379e-3
1.478,   1.429e-3
1.480,   1.477e-3
1.482,   1.526e-3
1.484,   1.576e-3
1.486,   1.625e-3
1.488,   1.667e-3
1.490,   1.705e-3
1.492,   1.750e-3
1.494,   1.794e-3
1.496,   1.835e-3
1.498,   1.872e-3
1.500,   1.907e-3
1.502,   1.946e-3
1.504,   1.967e-3
1.506,   2.002e-3
1.508,   2.037e-3
1.510,   2.072e-3
1.512,   2.104e-3
1.514,   2.130e-3
1.516,   2.151e-3
1.518,   2.179e-3
1.520,   2.214e-3
1.522,   2.271e-3
1.524,   2.290e-3
1.526,   2.305e-3
1.528,   2.322e-3
1.530,   2.332e-3
1.532,   2.344e-3
1.534,   2.361e-3
1.536,   2.367e-3
1.538,   2.377e-3
1.540,   2.392e-3
1.542,   2.402e-3
1.544,   2.453e-3
1.546,   2.458e-3
1.548,   2.462e-3
1.550,   2.465e-3
1.552,   2.473e-3
1.554,   2.478e-3
1.556,   2.484e-3
1.558,   2.494e-3
1.560,   2.494e-3
1.562,   2.505e-3
1.564,   2.513e-3
1.566,   2.515e-3
1.568,   2.520e-3
1.570,   2.527e-3
1.572,   2.536e-3
1.574,   2.544e-3
1.576,   2.548e-3
1.578,   2.559e-3
1.580,   2.562e-3

File: B2_BEST_400#20_High_Quality-274mV.txt
Jan. 14, 2023   13:57:20
Linear Sweep Voltammetry
File: d:\current work\al_oer\electrochemical test data\batch 2\400\B2_BEST_400#20_High_Quality-274mV.txt
Data Source:  Experiment
Instrument Model:  CHI660E
Header:
Note:

Init E (V) = 1.101

Final E (V) = 1.600

Scan Rate (V/s) = 0.010
Sample Interval (V) = 0.001
Quiet Time (sec) = 2
Sensitivity (A/V) = 0.001
Comp R (ohm) = 5.8

Results:

Channel 1:

Potential/V, Current/A
1.101,   1.586e-4
1.103,   1.397e-4
1.105,   1.225e-4
1.107,   1.090e-4
1.109,   9.820e-5
1.111,   8.961e-5
1.113,   8.239e-5
1.115,   7.645e-5
1.117,   7.144e-5
1.119,   6.728e-5
1.121,   6.362e-5
1.123,   6.048e-5
1.125,   5.774e-5
1.127,   5.543e-5
1.129,   5.347e-5
1.131,   5.161e-5
1.133,   4.996e-5
1.135,   4.858e-5
1.137,   4.732e-5
1.139,   4.618e-5
1.141,   4.519e-5
1.143,   4.426e-5
1.145,   4.341e-5
1.147,   4.265e-5
1.149,   4.200e-5
1.151,   4.139e-5
1.153,   4.090e-5
1.155,   4.034e-5
1.157,   3.992e-5
1.159,   3.961e-5
1.161,   3.924e-5
1.163,   3.885e-5
1.165,   3.853e-5
1.167,   3.838e-5
1.169,   3.812e-5
1.171,   3.792e-5
1.173,   3.778e-5
1.175,   3.767e-5
1.177,   3.758e-5
1.179,   3.745e-5
1.181,   3.734e-5
1.183,   3.725e-5
1.185,   3.715e-5
1.187,   3.713e-5
1.189,   3.705e-5
1.191,   3.698e-5
1.193,   3.697e-5
1.195,   3.693e-5
1.197,   3.689e-5
1.199,   3.695e-5
1.201,   3.697e-5
1.203,   3.696e-5
1.205,   3.700e-5
1.207,   3.706e-5
1.209,   3.706e-5
1.211,   3.714e-5
1.213,   3.713e-5
1.215,   3.722e-5
1.217,   3.726e-5
1.219,   3.733e-5
1.221,   3.739e-5
1.223,   3.744e-5
1.225,   3.745e-5
1.227,   3.749e-5
1.229,   3.766e-5
1.231,   3.776e-5
1.233,   3.785e-5
1.235,   3.787e-5
1.237,   3.796e-5
1.239,   3.810e-5
1.241,   3.822e-5
1.243,   3.828e-5
1.245,   3.834e-5
1.247,   3.853e-5
1.249,   3.855e-5
1.251,   3.866e-5
1.253,   3.874e-5
1.255,   3.887e-5
1.257,   3.899e-5
1.259,   3.903e-5
1.261,   3.921e-5
1.263,   3.931e-5
1.265,   3.946e-5
1.267,   3.951e-5
1.269,   3.958e-5
1.271,   3.976e-5
1.273,   3.988e-5
1.275,   3.999e-5
1.277,   4.005e-5
1.279,   4.019e-5
1.281,   4.025e-5
1.283,   4.042e-5
1.285,   4.047e-5
1.287,   4.053e-5
1.289,   4.068e-5
1.291,   4.079e-5
1.293,   4.082e-5
1.295,   4.098e-5
1.297,   4.109e-5
1.299,   4.115e-5
1.301,   4.122e-5
1.303,   4.141e-5
1.305,   4.151e-5
1.307,   4.159e-5
1.309,   4.169e-5
1.311,   4.181e-5
1.313,   4.199e-5
1.315,   4.211e-5
1.317,   4.219e-5
1.319,   4.233e-5
1.321,   4.248e-5
1.323,   4.262e-5
1.325,   4.266e-5
1.327,   4.292e-5
1.329,   4.302e-5
1.331,   4.317e-5
1.333,   4.334e-5
1.335,   4.344e-5
1.337,   4.367e-5
1.339,   4.384e-5
1.341,   4.399e-5
1.343,   4.421e-5
1.345,   4.439e-5
1.347,   4.462e-5
1.349,   4.483e-5
1.351,   4.512e-5
1.353,   4.547e-5
1.355,   4.573e-5
1.357,   4.599e-5
1.359,   4.637e-5
1.361,   4.675e-5
1.363,   4.716e-5
1.365,   4.758e-5
1.367,   4.808e-5
1.369,   4.861e-5
1.371,   4.921e-5
1.373,   4.980e-5
1.375,   5.056e-5
1.377,   5.138e-5
1.379,   5.220e-5
1.381,   5.316e-5
1.383,   5.429e-5
1.385,   5.545e-5
1.387,   5.667e-5
1.389,   5.819e-5
1.391,   5.993e-5
1.393,   6.176e-5
1.395,   6.380e-5
1.397,   6.624e-5
1.399,   6.876e-5
1.401,   7.161e-5
1.403,   7.481e-5
1.405,   7.840e-5
1.407,   8.230e-5
1.409,   8.667e-5
1.411,   9.144e-5
1.413,   9.668e-5
1.415,   1.024e-4
1.417,   1.088e-4
1.419,   1.157e-4
1.421,   1.233e-4
1.423,   1.316e-4
1.425,   1.405e-4
1.427,   1.500e-4
1.429,   1.606e-4
1.431,   1.719e-4
1.433,   1.839e-4
1.435,   1.967e-4
1.437,   2.108e-4
1.439,   2.273e-4
1.441,   2.446e-4
1.443,   2.627e-4
1.445,   2.850e-4
1.447,   3.066e-4
1.449,   3.299e-4
1.451,   3.549e-4
1.453,   3.809e-4
1.455,   4.071e-4
1.457,   4.373e-4
1.459,   4.688e-4
1.461,   5.019e-4
1.463,   5.450e-4
1.465,   5.872e-4
1.467,   6.295e-4
1.469,   6.737e-4
1.471,   7.177e-4
1.473,   7.677e-4
1.475,   8.157e-4
1.477,   8.625e-4
1.479,   9.349e-4
1.481,   9.827e-4
1.483,   1.047e-3
1.485,   1.113e-3
1.487,   1.184e-3
1.489,   1.258e-3
1.491,   1.326e-3
1.493,   1.412e-3
1.495,   1.491e-3
1.497,   1.578e-3
1.499,   1.673e-3
1.501,   1.786e-3
1.503,   1.881e-3
1.505,   1.986e-3
1.507,   2.090e-3
1.509,   2.200e-3
1.511,   2.307e-3
1.513,   2.431e-3
1.515,   2.550e-3
1.517,   2.675e-3
1.519,   2.796e-3
1.521,   2.925e-3
1.523,   3.070e-3
1.525,   3.225e-3
1.527,   3.374e-3
1.529,   3.518e-3
1.531,   3.670e-3
1.533,   3.814e-3
1.535,   3.947e-3
1.537,   4.089e-3
1.539,   4.294e-3
1.541,   4.468e-3
1.543,   4.639e-3
1.545,   4.802e-3
1.547,   4.993e-3
1.549,   5.162e-3
1.551,   5.354e-3
1.553,   5.529e-3
1.555,   5.722e-3
1.557,   6.037e-3
1.559,   6.329e-3
1.561,   6.495e-3
1.563,   6.681e-3
1.565,   6.916e-3
1.567,   7.114e-3
1.569,   7.299e-3
1.571,   7.494e-3
1.573,   7.710e-3
1.575,   7.932e-3
1.577,   8.167e-3
1.579,   8.378e-3
1.581,   8.569e-3
1.583,   8.785e-3
1.585,   8.997e-3
1.587,   9.271e-3
1.589,   9.566e-3
1.591,   9.792e-3
1.593,   1.000e-2
1.595,   1.006e-2
1.597,   1.006e-2
1.599,   1.006e-2
1.600,   1.006e-2

File: B2_VARIANCE_400#3_Full-271mV.txt
Jan. 14, 2023   15:45:56
Linear Sweep Voltammetry
File: d:\current work\al_oer\electrochemical test data\batch 2\400\B2_VARIANCE_400#3_Full-271mV.txt
Data Source:  Experiment
Instrument Model:  CHI660E
Header:
Note:

Init E (V) = 1.098

Final E (V) = 1.591

Scan Rate (V/s) = 0.010
Sample Interval (V) = 0.001
Quiet Time (sec) = 2
Sensitivity (A/V) = 0.001
Comp R (ohm) = 6.1

Results:

Channel 1:

Potential/V, Current/A
1.098,   6.567e-5
1.100,   5.811e-5
1.102,   5.070e-5
1.104,   4.517e-5
1.106,   4.100e-5
1.108,   3.754e-5
1.110,   3.497e-5
1.112,   3.270e-5
1.114,   3.091e-5
1.116,   2.944e-5
1.118,   2.822e-5
1.120,   2.714e-5
1.122,   2.625e-5
1.124,   2.537e-5
1.126,   2.462e-5
1.128,   2.396e-5
1.130,   2.343e-5
1.132,   2.303e-5
1.134,   2.260e-5
1.136,   2.221e-5
1.138,   2.190e-5
1.140,   2.163e-5
1.142,   2.134e-5
1.144,   2.111e-5
1.146,   2.090e-5
1.148,   2.076e-5
1.150,   2.062e-5
1.152,   2.044e-5
1.154,   2.035e-5
1.156,   2.023e-5
1.158,   2.010e-5
1.160,   2.001e-5
1.162,   1.990e-5
1.164,   1.992e-5
1.166,   1.983e-5
1.168,   1.977e-5
1.170,   1.979e-5
1.172,   1.978e-5
1.174,   1.973e-5
1.176,   1.975e-5
1.178,   1.968e-5
1.180,   1.974e-5
1.182,   1.973e-5
1.184,   1.970e-5
1.186,   1.974e-5
1.188,   1.978e-5
1.190,   1.981e-5
1.192,   1.980e-5
1.194,   1.979e-5
1.196,   1.991e-5
1.198,   1.987e-5
1.200,   1.992e-5
1.202,   1.999e-5
1.204,   2.006e-5
1.206,   2.002e-5
1.208,   2.008e-5
1.210,   2.009e-5
1.212,   2.016e-5
1.214,   2.024e-5
1.216,   2.026e-5
1.218,   2.034e-5
1.220,   2.043e-5
1.222,   2.047e-5
1.224,   2.050e-5
1.226,   2.054e-5
1.228,   2.062e-5
1.230,   2.068e-5
1.232,   2.066e-5
1.234,   2.076e-5
1.236,   2.085e-5
1.238,   2.089e-5
1.240,   2.096e-5
1.242,   2.098e-5
1.244,   2.110e-5
1.246,   2.116e-5
1.248,   2.120e-5
1.250,   2.128e-5
1.252,   2.136e-5
1.254,   2.136e-5
1.256,   2.141e-5
1.258,   2.142e-5
1.260,   2.155e-5
1.262,   2.162e-5
1.264,   2.169e-5
1.266,   2.171e-5
1.268,   2.184e-5
1.270,   2.186e-5
1.272,   2.193e-5
1.274,   2.194e-5
1.276,   2.206e-5
1.278,   2.213e-5
1.280,   2.215e-5
1.282,   2.225e-5
1.284,   2.232e-5
1.286,   2.240e-5
1.288,   2.242e-5
1.290,   2.250e-5
1.292,   2.266e-5
1.294,   2.269e-5
1.296,   2.270e-5
1.298,   2.283e-5
1.300,   2.291e-5
1.302,   2.293e-5
1.304,   2.309e-5
1.306,   2.322e-5
1.308,   2.325e-5
1.310,   2.333e-5
1.312,   2.344e-5
1.314,   2.349e-5
1.316,   2.365e-5
1.318,   2.374e-5
1.320,   2.388e-5
1.322,   2.393e-5
1.324,   2.414e-5
1.326,   2.419e-5
1.328,   2.428e-5
1.330,   2.442e-5
1.332,   2.457e-5
1.334,   2.471e-5
1.336,   2.488e-5
1.338,   2.502e-5
1.340,   2.515e-5
1.342,   2.530e-5
1.344,   2.552e-5
1.346,   2.574e-5
1.348,   2.600e-5
1.350,   2.625e-5
1.352,   2.644e-5
1.354,   2.670e-5
1.356,   2.704e-5
1.358,   2.736e-5
1.360,   2.766e-5
1.362,   2.812e-5
1.364,   2.845e-5
1.366,   2.892e-5
1.368,   2.939e-5
1.370,   2.991e-5
1.372,   3.056e-5
1.374,   3.113e-5
1.376,   3.181e-5
1.378,   3.256e-5
1.380,   3.340e-5
1.382,   3.425e-5
1.384,   3.523e-5
1.386,   3.625e-5
1.388,   3.748e-5
1.390,   3.869e-5
1.392,   4.021e-5
1.394,   4.162e-5
1.396,   4.331e-5
1.398,   4.531e-5
1.400,   4.743e-5
1.402,   4.978e-5
1.404,   5.241e-5
1.406,   5.518e-5
1.408,   5.846e-5
1.410,   6.190e-5
1.412,   6.585e-5
1.414,   7.016e-5
1.416,   7.484e-5
1.418,   8.020e-5
1.420,   8.609e-5
1.422,   9.241e-5
1.424,   9.931e-5
1.426,   1.070e-4
1.428,   1.155e-4
1.430,   1.248e-4
1.432,   1.350e-4
1.434,   1.461e-4
1.436,   1.584e-4
1.438,   1.717e-4
1.440,   1.862e-4
1.442,   2.019e-4
1.444,   2.191e-4
1.446,   2.379e-4
1.448,   2.582e-4
1.450,   2.803e-4
1.452,   3.044e-4
1.454,   3.303e-4
1.456,   3.583e-4
1.458,   3.883e-4
1.460,   4.211e-4
1.462,   4.565e-4
1.464,   4.945e-4
1.466,   5.353e-4
1.468,   5.795e-4
1.470,   6.265e-4
1.472,   6.763e-4
1.474,   7.299e-4
1.476,   7.869e-4
1.478,   8.478e-4
1.480,   9.122e-4
1.482,   9.811e-4
1.484,   1.059e-3
1.486,   1.138e-3
1.488,   1.220e-3
1.490,   1.307e-3
1.492,   1.399e-3
1.494,   1.496e-3
1.496,   1.597e-3
1.498,   1.708e-3
1.500,   1.822e-3
1.502,   1.940e-3
1.504,   2.063e-3
1.506,   2.187e-3
1.508,   2.318e-3
1.510,   2.455e-3
1.512,   2.599e-3
1.514,   2.747e-3
1.516,   2.902e-3
1.518,   3.066e-3
1.520,   3.231e-3
1.522,   3.397e-3
1.524,   3.572e-3
1.526,   3.821e-3
1.528,   4.049e-3
1.530,   4.244e-3
1.532,   4.445e-3
1.534,   4.653e-3
1.536,   4.858e-3
1.538,   5.071e-3
1.540,   5.295e-3
1.542,   5.528e-3
1.544,   5.774e-3
1.546,   5.996e-3
1.548,   6.247e-3
1.550,   6.525e-3
1.552,   6.917e-3
1.554,   7.677e-3
1.556,   7.920e-3
1.558,   8.177e-3
1.560,   8.431e-3
1.562,   8.754e-3
1.564,   9.024e-3
1.566,   9.393e-3
1.568,   9.918e-3
1.570,   1.006e-2
1.572,   1.006e-2
1.574,   1.006e-2
1.576,   1.006e-2
1.578,   1.006e-2
1.580,   1.006e-2
1.582,   1.006e-2
1.584,   1.006e-2
1.586,   1.006e-2
1.588,   1.006e-2
1.590,   1.006e-2
1.591,   1.006e-2

File: B2_VARIANCE_400#6_High_Quality-350mV.txt
Jan. 14, 2023   13:32:12
Linear Sweep Voltammetry
File: d:\current work\al_oer\electrochemical test data\batch 2\400\B2_VARIANCE_400#6_High_Quality-350mV.txt
Data Source:  Experiment
Instrument Model:  CHI660E
Header:
Note:

Init E (V) = 1.086

Final E (V) = 1.685

Scan Rate (V/s) = 0.010
Sample Interval (V) = 0.001
Quiet Time (sec) = 2
Sensitivity (A/V) = 0.001
Comp R (ohm) = 5.5

Results:

Channel 1:
Ep = 1.466V
ip = 2.064e-3A
Ah = 4.659e-2C

Potential/V, Current/A
1.086, 	0.00003107
1.088, 	0.00002788
1.09, 	0.00002517
1.092, 	0.00002288
1.094, 	0.00002122
1.096, 	0.0000197
1.098, 	0.00001845
1.1, 	0.00001731
1.102, 	0.00001646
1.104, 	0.00001577
1.106, 	0.0000151
1.108, 	0.00001449
1.11, 	0.00001401
1.112, 	0.00001364
1.114, 	0.00001327
1.116, 	0.00001292
1.118, 	0.00001254
1.12, 	0.00001238
1.122, 	0.00001211
1.124, 	0.00001189
1.126, 	0.00001175
1.128, 	0.00001163
1.13, 	0.00001142
1.132, 	0.00001124
1.134, 	0.00001114
1.136, 	0.00001102
1.138, 	0.00001092
1.14, 	0.00001085
1.142, 	0.00001078
1.144, 	0.00001071
1.146, 	0.00001065
1.148, 	0.00001056
1.15, 	0.00001055
1.152, 	0.00001057
1.154, 	0.00001054
1.156, 	0.00001054
1.158, 	0.0000105
1.16, 	0.00001053
1.162, 	0.00001049
1.164, 	0.0000105
1.166, 	0.00001052
1.168, 	0.00001054
1.17, 	0.00001058
1.172, 	0.00001057
1.174, 	0.00001057
1.176, 	0.00001062
1.178, 	0.00001067
1.18, 	0.0000107
1.182, 	0.00001074
1.184, 	0.0000108
1.186, 	0.0000109
1.188, 	0.00001088
1.19, 	0.00001095
1.192, 	0.00001099
1.194, 	0.00001098
1.196, 	0.00001105
1.198, 	0.00001109
1.2, 	0.00001118
1.202, 	0.00001122
1.204, 	0.00001125
1.206, 	0.0000113
1.208, 	0.00001139
1.21, 	0.00001144
1.212, 	0.0000115
1.214, 	0.0000115
1.216, 	0.0000117
1.218, 	0.00001172
1.22, 	0.00001182
1.222, 	0.00001186
1.224, 	0.00001194
1.226, 	0.00001199
1.228, 	0.00001213
1.23, 	0.00001218
1.232, 	0.00001223
1.234, 	0.00001241
1.236, 	0.00001247
1.238, 	0.00001254
1.24, 	0.00001255
1.242, 	0.00001267
1.244, 	0.00001269
1.246, 	0.00001276
1.248, 	0.00001286
1.25, 	0.00001298
1.252, 	0.00001302
1.254, 	0.00001308
1.256, 	0.00001316
1.258, 	0.00001323
1.26, 	0.00001331
1.262, 	0.00001338
1.264, 	0.00001346
1.266, 	0.00001352
1.268, 	0.00001365
1.27, 	0.00001376
1.272, 	0.00001381
1.274, 	0.00001388
1.276, 	0.00001392
1.278, 	0.000014
1.28, 	0.00001411
1.282, 	0.00001427
1.284, 	0.00001432
1.286, 	0.0000144
1.288, 	0.00001449
1.29, 	0.00001456
1.292, 	0.00001463
1.294, 	0.00001472
1.296, 	0.00001485
1.298, 	0.00001495
1.3, 	0.00001511
1.302, 	0.00001521
1.304, 	0.00001525
1.306, 	0.00001538
1.308, 	0.00001548
1.31, 	0.00001556
1.312, 	0.00001578
1.314, 	0.00001594
1.316, 	0.00001596
1.318, 	0.00001613
1.32, 	0.00001623
1.322, 	0.00001631
1.324, 	0.00001642
1.326, 	0.00001657
1.328, 	0.00001673
1.33, 	0.00001689
1.332, 	0.00001701
1.334, 	0.00001721
1.336, 	0.00001741
1.338, 	0.0000176
1.34, 	0.00001771
1.342, 	0.00001794
1.344, 	0.00001818
1.346, 	0.0000183
1.348, 	0.00001847
1.35, 	0.00001872
1.352, 	0.000019
1.354, 	0.0000193
1.356, 	0.00001951
1.358, 	0.00001987
1.36, 	0.00002022
1.362, 	0.00002057
1.364, 	0.00002092
1.366, 	0.00002128
1.368, 	0.00002171
1.37, 	0.00002226
1.372, 	0.00002287
1.374, 	0.00002342
1.376, 	0.00002404
1.378, 	0.00002472
1.38, 	0.0000255
1.382, 	0.00002631
1.384, 	0.00002731
1.386, 	0.00002836
1.388, 	0.00002961
1.39, 	0.00003088
1.392, 	0.0000324
1.394, 	0.00003391
1.396, 	0.00003594
1.398, 	0.00003749
1.4, 	0.00003943
1.402, 	0.00004164
1.404, 	0.0000441
1.406, 	0.00004703
1.408, 	0.00004975
1.41, 	0.00005271
1.412, 	0.00005628
1.414, 	0.00005992
1.416, 	0.00006384
1.418, 	0.00006807
1.42, 	0.0000727
1.422, 	0.0000779
1.424, 	0.00008318
1.426, 	0.00008871
1.428, 	0.00009486
1.43, 	0.0001014
1.432, 	0.0001083
1.434, 	0.0001158
1.436, 	0.0001237
1.438, 	0.0001321
1.44, 	0.000141
1.442, 	0.0001505
1.444, 	0.0001607
1.446, 	0.0001712
1.448, 	0.0001822
1.45, 	0.0001943
1.452, 	0.0002068
1.454, 	0.0002199
1.456, 	0.0002342
1.458, 	0.0002491
1.46, 	0.0002647
1.462, 	0.0002812
1.464, 	0.0002986
1.466, 	0.0003171
1.468, 	0.0003361
1.47, 	0.0003559
1.472, 	0.0003774
1.474, 	0.0003995
1.476, 	0.000422
1.478, 	0.000446
1.48, 	0.0004711
1.482, 	0.0004969
1.484, 	0.0005235
1.486, 	0.0005513
1.488, 	0.0005797
1.49, 	0.000609
1.492, 	0.0006392
1.494, 	0.0006702
1.496, 	0.0007018
1.498, 	0.0007331
1.5, 	0.0007665
1.502, 	0.0008008
1.504, 	0.000835
1.506, 	0.0008685
1.508, 	0.0009041
1.51, 	0.0009388
1.512, 	0.000975
1.514, 	0.001011
1.516, 	0.001047
1.518, 	0.001082
1.52, 	0.001116
1.522, 	0.00115
1.524, 	0.001184
1.526, 	0.001219
1.528, 	0.001252
1.53, 	0.001286
1.532, 	0.001318
1.534, 	0.001349
1.536, 	0.001381
1.538, 	0.001413
1.54, 	0.001445
1.542, 	0.001473
1.544, 	0.001504
1.546, 	0.001532
1.548, 	0.00156
1.55, 	0.001587
1.552, 	0.001614
1.554, 	0.001641
1.556, 	0.001669
1.558, 	0.001695
1.56, 	0.001719
1.562, 	0.001743
1.564, 	0.001766
1.566, 	0.001785
1.568, 	0.001806
1.57, 	0.00183
1.572, 	0.001855
1.574, 	0.001877
1.576, 	0.001898
1.578, 	0.001922
1.58, 	0.001953
1.582, 	0.001973
1.584, 	0.00199
1.586, 	0.002009
1.588, 	0.002026
1.59, 	0.002042
1.592, 	0.00206
1.594, 	0.002077
1.596, 	0.002089
1.598, 	0.002104
1.6, 	0.002119
1.602, 	0.002134
1.604, 	0.002148
1.606, 	0.002162
1.608, 	0.002174
1.61, 	0.002189
1.612, 	0.002201
1.614, 	0.002212
1.616, 	0.00222
1.618, 	0.002234
1.62, 	0.002245
1.622, 	0.002256
1.624, 	0.002265
1.626, 	0.002277
1.628, 	0.002285
1.63, 	0.002294
1.632, 	0.002306
1.634, 	0.002307
1.636, 	0.002313
1.638, 	0.002319
1.64, 	0.002319
1.642, 	0.002317
1.644, 	0.002314
1.646, 	0.002315
1.648, 	0.002316
1.65, 	0.002316
1.652, 	0.002316
1.654, 	0.002316
1.656, 	0.002307
1.658, 	0.002299
1.66, 	0.002294
1.662, 	0.002283
1.664, 	0.002274
1.666, 	0.002265
1.668, 	0.002256
1.67, 	0.002251
1.672, 	0.002243
1.674, 	0.002232
1.676, 	0.002219
1.678, 	0.002208
1.68, 	0.002194
1.682, 	0.002179
1.684, 	0.002163
1.685, 	0.002154