Folder: DASH/Experimental Records and Raw Data/batch2/final400

Note: README.md
# DASH
This is the online repository that stores code, data and supplementary figures of the research work: <Leveraging Data Mining, Active Learning, and Domain Adaptation in a Multi-Stage, Machine Learning-Driven Approach for the Efficient Discovery of Advanced Acidic Oxygen Evolution Electrocatalysts> by Rui Ding et. al. (https://arxiv.org/abs/2407.04877)
![Workflow Schematic](https://github.com/ruiding-uchicago/D.A.S.H./blob/main/Online%20Repository%20Figures/D.A.S.H.%20Workflow.jpg)
## Code Description

Our code is written and uploaded on GitHub in Jupyter notebook file format, which is already very easy to conduct and get results. Our code does not include providing a new python library, but users could track how we train machine learning models in Jupyter ipynb files. Also, we have provided all original dataset CSV files to drive the active learning flow. Additionally, we have detailed the python version and package environment used for this work, focusing on machine learning-related packages.

## Environment
This project was trained using Python version 3.9.12. Below is the list of machine learning-related packages and their versions used in this project on the local machine we used equipped with 2080 Ti GPU, users could install anaconda (https://www.anaconda.com/download) and using pip install to install the packages below for setting environment to run in the Jupyter notebook (https://docs.anaconda.com/ae-notebooks/user-guide/basic-tasks/apps/jupyter/index.html):

absl-py 1.2.0
ase 3.22.1
catboost 1.0.6
cython 0.29.28
dask 2022.2.1
deep-forest 0.1.7
gensim 4.1.2
h5py 3.6.0
keras 2.9.0
Keras-Preprocessing 1.1.2
keras-tcn 3.5.0
lightgbm 3.3.2
matplotlib 3.4.3
numpy 1.23.5
pandas 1.4.2
pytorch-lightning 2.0.1
pymatgen 2023.8.10
scikit-learn 1.0.2
scipy 1.8.0
scikit-opt  0.6.6
scikit-optimize 0.9.0
seaborn 0.11.2
tensorboard                  2.10.1
tensorboard-data-server      0.6.1
tensorboard-plugin-wit       1.8.1
tensorflow-estimator         2.10.0
tensorflow-gpu               2.10.0
tensorflow-io-gcs-filesystem 0.31.0
torch 2.0.0
torchvision 0.15.1
xgboost 1.6.2

File: B2_BEST_400#4_Full-202mV.txt
Jan. 14, 2023   14:08:21
Linear Sweep Voltammetry
File: d:\current work\al_oer\electrochemical test data\batch 2\400\B2_BEST_400#4_Full-202mV.txt
Data Source:  Experiment
Instrument Model:  CHI660E
Header:
Note:

Init E (V) = 1.098

Final E (V) = 1.597

Scan Rate (V/s) = 0.010
Sample Interval (V) = 0.001
Quiet Time (sec) = 2
Sensitivity (A/V) = 0.001
Comp R (ohm) = 6.4

Results:

Channel 1:
Ep = 1.266V
ip = 9.954e-3A
Ah = 3.531e-2C

Potential/V, Current/A
1.098,   2.489e-4
1.100,   2.423e-4
1.102,   2.106e-4
1.104,   1.951e-4
1.106,   1.735e-4
1.108,   1.674e-4
1.110,   1.558e-4
1.112,   1.444e-4
1.114,   1.407e-4
1.116,   1.398e-4
1.118,   1.358e-4
1.120,   1.320e-4
1.122,   1.291e-4
1.124,   1.260e-4
1.126,   1.200e-4
1.128,   1.151e-4
1.130,   1.168e-4
1.132,   1.180e-4
1.134,   1.111e-4
1.136,   1.152e-4
1.138,   1.094e-4
1.140,   1.120e-4
1.142,   1.107e-4
1.144,   1.081e-4
1.146,   1.085e-4
1.148,   1.085e-4
1.150,   1.078e-4
1.152,   1.068e-4
1.154,   1.062e-4
1.156,   1.040e-4
1.158,   1.054e-4
1.160,   1.089e-4
1.162,   1.061e-4
1.164,   1.018e-4
1.166,   1.087e-4
1.168,   1.026e-4
1.170,   1.081e-4
1.172,   1.016e-4
1.174,   1.090e-4
1.176,   1.048e-4
1.178,   9.965e-5
1.180,   1.065e-4
1.182,   1.112e-4
1.184,   1.094e-4
1.186,   1.084e-4
1.188,   1.058e-4
1.190,   1.055e-4
1.192,   1.091e-4
1.194,   1.098e-4
1.196,   1.110e-4
1.198,   1.027e-4
1.200,   1.009e-4
1.202,   1.094e-4
1.204,   1.068e-4
1.206,   1.032e-4
1.208,   1.115e-4
1.210,   1.009e-4
1.212,   1.096e-4
1.214,   1.036e-4
1.216,   1.052e-4
1.218,   1.076e-4
1.220,   1.035e-4
1.222,   1.049e-4
1.224,   1.059e-4
1.226,   1.077e-4
1.228,   1.073e-4
1.230,   1.046e-4
1.232,   1.079e-4
1.234,   1.075e-4
1.236,   1.075e-4
1.238,   1.070e-4
1.240,   1.063e-4
1.242,   1.063e-4
1.244,   1.064e-4
1.246,   1.068e-4
1.248,   1.094e-4
1.250,   1.091e-4
1.252,   1.012e-4
1.254,   1.031e-4
1.256,   1.108e-4
1.258,   1.020e-4
1.260,   1.093e-4
1.262,   1.086e-4
1.264,   1.097e-4
1.266,   1.110e-4
1.268,   1.153e-4
1.270,   9.880e-5
1.272,   1.146e-4
1.274,   1.171e-4
1.276,   1.063e-4
1.278,   1.047e-4
1.280,   1.064e-4
1.282,   1.234e-4
1.284,   1.137e-4
1.286,   1.139e-4
1.288,   1.009e-4
1.290,   1.033e-4
1.292,   9.913e-5
1.294,   1.006e-4
1.296,   1.044e-4
1.298,   1.025e-4
1.300,   1.007e-4
1.302,   1.058e-4
1.304,   1.038e-4
1.306,   1.048e-4
1.308,   1.173e-4
1.310,   1.258e-4
1.312,   1.223e-4
1.314,   1.106e-4
1.316,   1.011e-4
1.318,   1.125e-4
1.320,   1.232e-4
1.322,   1.071e-4
1.324,   1.109e-4
1.326,   1.219e-4
1.328,   1.060e-4
1.330,   1.260e-4
1.332,   1.087e-4
1.334,   1.196e-4
1.336,   1.114e-4
1.338,   1.235e-4
1.340,   1.121e-4
1.342,   1.272e-4
1.344,   1.141e-4
1.346,   1.183e-4
1.348,   1.308e-4
1.350,   1.164e-4
1.352,   1.271e-4
1.354,   1.169e-4
1.356,   1.273e-4
1.358,   1.197e-4
1.360,   1.304e-4
1.362,   1.364e-4
1.364,   1.252e-4
1.366,   1.361e-4
1.368,   1.465e-4
1.370,   1.437e-4
1.372,   1.376e-4
1.374,   1.430e-4
1.376,   1.564e-4
1.378,   1.493e-4
1.380,   1.625e-4
1.382,   1.788e-4
1.384,   1.799e-4
1.386,   2.050e-4
1.388,   2.117e-4
1.390,   2.115e-4
1.392,   2.583e-4
1.394,   2.615e-4
1.396,   2.699e-4
1.398,   3.200e-4
1.400,   3.596e-4
1.402,   4.023e-4
1.404,   4.351e-4
1.406,   4.837e-4
1.408,   5.309e-4
1.410,   5.954e-4
1.412,   6.675e-4
1.414,   7.484e-4
1.416,   8.347e-4
1.418,   9.222e-4
1.420,   1.008e-3
1.422,   1.119e-3
1.424,   1.249e-3
1.426,   1.409e-3
1.428,   1.555e-3
1.430,   1.694e-3
1.432,   1.881e-3
1.434,   2.093e-3
1.436,   2.279e-3
1.438,   2.512e-3
1.440,   2.794e-3
1.442,   3.026e-3
1.444,   3.357e-3
1.446,   3.653e-3
1.448,   4.030e-3
1.450,   4.534e-3
1.452,   5.078e-3
1.454,   5.742e-3
1.456,   6.477e-3
1.458,   7.347e-3
1.460,   8.482e-3
1.462,   1.004e-2
1.464,   1.006e-2
1.466,   1.006e-2
1.468,   1.006e-2
1.470,   1.006e-2
1.472,   1.006e-2
1.474,   1.006e-2
1.476,   1.006e-2
1.478,   1.006e-2
1.480,   1.006e-2
1.482,   1.006e-2
1.484,   1.006e-2
1.486,   1.006e-2
1.488,   1.006e-2
1.490,   1.006e-2
1.492,   1.006e-2
1.494,   1.006e-2
1.496,   1.006e-2
1.498,   1.006e-2
1.500,   1.006e-2
1.502,   1.006e-2
1.504,   1.006e-2
1.506,   1.006e-2
1.508,   1.006e-2
1.510,   1.006e-2
1.512,   1.006e-2
1.514,   1.006e-2
1.516,   1.006e-2
1.518,   1.006e-2
1.520,   1.006e-2
1.522,   1.006e-2
1.524,   1.006e-2
1.526,   1.006e-2
1.528,   1.006e-2
1.530,   1.006e-2
1.532,   1.006e-2
1.534,   1.006e-2
1.536,   1.006e-2
1.538,   1.006e-2
1.540,   1.006e-2
1.542,   1.006e-2
1.544,   1.006e-2
1.546,   1.006e-2
1.548,   1.006e-2
1.550,   1.006e-2
1.552,   1.006e-2
1.554,   1.006e-2
1.556,   1.006e-2
1.558,   1.006e-2
1.560,   1.006e-2
1.562,   1.006e-2
1.564,   1.006e-2
1.566,   1.006e-2
1.568,   1.006e-2
1.570,   1.006e-2
1.572,   1.006e-2
1.574,   1.006e-2
1.576,   1.006e-2
1.578,   1.006e-2
1.580,   1.006e-2
1.582,   1.006e-2
1.584,   1.006e-2
1.586,   1.006e-2
1.588,   1.006e-2
1.590,   1.006e-2
1.592,   1.006e-2
1.594,   1.006e-2
1.596,   1.006e-2
1.597,   1.006e-2

File: B2_BEST_400#7_Full-187mV.txt
Jan. 13, 2023   17:00:58
Linear Sweep Voltammetry
File: d:\current work\al_oer\electrochemical test data\batch 2\400\B2_BEST_400#7_Full-187mV.txt
Data Source:  Experiment
Instrument Model:  CHI660E
Header:
Note:

Init E (V) = 1.098

Final E (V) = 1.449

Scan Rate (V/s) = 0.010
Sample Interval (V) = 0.001
Quiet Time (sec) = 2
Sensitivity (A/V) = 0.001
Comp R (ohm) = 6.0

Results:

Channel 1:

Potential/V, Current/A
1.098,   8.295e-4
1.100,   6.736e-4
1.102,   5.557e-4
1.104,   4.681e-4
1.106,   4.073e-4
1.108,   3.560e-4
1.110,   3.291e-4
1.112,   2.999e-4
1.114,   2.833e-4
1.116,   2.614e-4
1.118,   2.518e-4
1.120,   2.364e-4
1.122,   2.236e-4
1.124,   2.205e-4
1.126,   2.131e-4
1.128,   2.019e-4
1.130,   1.960e-4
1.132,   1.974e-4
1.134,   1.962e-4
1.136,   1.896e-4
1.138,   1.860e-4
1.140,   1.874e-4
1.142,   1.826e-4
1.144,   1.770e-4
1.146,   1.831e-4
1.148,   1.722e-4
1.150,   1.779e-4
1.152,   1.605e-4
1.154,   1.719e-4
1.156,   1.635e-4
1.158,   1.732e-4
1.160,   1.668e-4
1.162,   1.564e-4
1.164,   1.702e-4
1.166,   1.670e-4
1.168,   1.640e-4
1.170,   1.535e-4
1.172,   1.580e-4
1.174,   1.649e-4
1.176,   1.700e-4
1.178,   1.663e-4
1.180,   1.705e-4
1.182,   1.619e-4
1.184,   1.646e-4
1.186,   1.657e-4
1.188,   1.633e-4
1.190,   1.681e-4
1.192,   1.698e-4
1.194,   1.647e-4
1.196,   1.609e-4
1.198,   1.508e-4
1.200,   1.467e-4
1.202,   1.579e-4
1.204,   1.704e-4
1.206,   1.583e-4
1.208,   1.513e-4
1.210,   1.528e-4
1.212,   1.656e-4
1.214,   1.560e-4
1.216,   1.517e-4
1.218,   1.681e-4
1.220,   1.519e-4
1.222,   1.581e-4
1.224,   1.670e-4
1.226,   1.487e-4
1.228,   1.641e-4
1.230,   1.537e-4
1.232,   1.585e-4
1.234,   1.508e-4
1.236,   1.581e-4
1.238,   1.577e-4
1.240,   1.647e-4
1.242,   1.543e-4
1.244,   1.607e-4
1.246,   1.521e-4
1.248,   1.675e-4
1.250,   1.556e-4
1.252,   1.541e-4
1.254,   1.604e-4
1.256,   1.559e-4
1.258,   1.685e-4
1.260,   1.536e-4
1.262,   1.586e-4
1.264,   1.660e-4
1.266,   1.527e-4
1.268,   1.623e-4
1.270,   1.639e-4
1.272,   1.567e-4
1.274,   1.593e-4
1.276,   1.649e-4
1.278,   1.580e-4
1.280,   1.592e-4
1.282,   1.635e-4
1.284,   1.587e-4
1.286,   1.594e-4
1.288,   1.697e-4
1.290,   1.566e-4
1.292,   1.578e-4
1.294,   1.708e-4
1.296,   1.579e-4
1.298,   1.659e-4
1.300,   1.527e-4
1.302,   1.701e-4
1.304,   1.631e-4
1.306,   1.691e-4
1.308,   1.612e-4
1.310,   1.660e-4
1.312,   1.619e-4
1.314,   1.701e-4
1.316,   1.652e-4
1.318,   1.722e-4
1.320,   1.609e-4
1.322,   1.708e-4
1.324,   1.588e-4
1.326,   1.727e-4
1.328,   1.628e-4
1.330,   1.766e-4
1.332,   1.726e-4
1.334,   1.708e-4
1.336,   1.809e-4
1.338,   1.679e-4
1.340,   1.827e-4
1.342,   1.764e-4
1.344,   1.749e-4
1.346,   1.867e-4
1.348,   1.752e-4
1.350,   1.877e-4
1.352,   1.933e-4
1.354,   1.837e-4
1.356,   1.981e-4
1.358,   2.038e-4
1.360,   1.965e-4
1.362,   2.102e-4
1.364,   2.221e-4
1.366,   2.148e-4
1.368,   2.319e-4
1.370,   2.461e-4
1.372,   2.432e-4
1.374,   2.721e-4
1.376,   2.832e-4
1.378,   2.894e-4
1.380,   3.217e-4
1.382,   3.481e-4
1.384,   3.598e-4
1.386,   3.992e-4
1.388,   4.414e-4
1.390,   4.663e-4
1.392,   5.189e-4
1.394,   5.761e-4
1.396,   6.221e-4
1.398,   7.041e-4
1.400,   7.685e-4
1.402,   8.532e-4
1.404,   9.484e-4
1.406,   1.050e-3
1.408,   1.182e-3
1.410,   1.301e-3
1.412,   1.463e-3
1.414,   1.612e-3
1.416,   1.803e-3
1.418,   2.006e-3
1.420,   2.219e-3
1.422,   2.467e-3
1.424,   2.744e-3
1.426,   3.030e-3
1.428,   3.384e-3
1.430,   3.784e-3
1.432,   4.276e-3
1.434,   4.819e-3
1.436,   5.447e-3
1.438,   6.192e-3
1.440,   7.013e-3
1.442,   7.956e-3
1.444,   9.030e-3
1.446,   1.006e-2
1.448,   1.006e-2
1.449,   1.006e-2

File: B2_BEST_400#8_Full-208mV.txt
Jan. 13, 2023   16:17:46
Linear Sweep Voltammetry
File: d:\current work\al_oer\electrochemical test data\batch 2\400\B2_BEST_400#8_Full-208mV.txt
Data Source:  Experiment
Instrument Model:  CHI660E
Header:
Note:

Init E (V) = 1.099

Final E (V) = 1.479

Scan Rate (V/s) = 0.010
Sample Interval (V) = 0.001
Quiet Time (sec) = 2
Sensitivity (A/V) = 0.001
Comp R (ohm) = 5.6

Results:

Channel 1:

Potential/V, Current/A
1.099,   1.048e-4
1.101,   1.137e-4
1.103,   1.034e-4
1.105,   9.554e-5
1.107,   9.015e-5
1.109,   8.551e-5
1.111,   8.175e-5
1.113,   7.879e-5
1.115,   7.630e-5
1.117,   7.450e-5
1.119,   7.304e-5
1.121,   7.143e-5
1.123,   7.030e-5
1.125,   6.959e-5
1.127,   6.889e-5
1.129,   6.807e-5
1.131,   6.749e-5
1.133,   6.744e-5
1.135,   6.698e-5
1.137,   6.649e-5
1.139,   6.632e-5
1.141,   6.620e-5
1.143,   6.599e-5
1.145,   6.598e-5
1.147,   6.574e-5
1.149,   6.597e-5
1.151,   6.586e-5
1.153,   6.565e-5
1.155,   6.568e-5
1.157,   6.595e-5
1.159,   6.586e-5
1.161,   6.587e-5
1.163,   6.585e-5
1.165,   6.643e-5
1.167,   6.633e-5
1.169,   6.615e-5
1.171,   6.679e-5
1.173,   6.686e-5
1.175,   6.700e-5
1.177,   6.693e-5
1.179,   6.707e-5
1.181,   6.744e-5
1.183,   6.766e-5
1.185,   6.756e-5
1.187,   6.776e-5
1.189,   6.819e-5
1.191,   6.826e-5
1.193,   6.827e-5
1.195,   6.842e-5
1.197,   6.896e-5
1.199,   6.911e-5
1.201,   6.893e-5
1.203,   6.933e-5
1.205,   6.965e-5
1.207,   6.974e-5
1.209,   6.992e-5
1.211,   6.980e-5
1.213,   7.034e-5
1.215,   7.036e-5
1.217,   7.024e-5
1.219,   7.042e-5
1.221,   7.091e-5
1.223,   7.082e-5
1.225,   7.095e-5
1.227,   7.094e-5
1.229,   7.154e-5
1.231,   7.135e-5
1.233,   7.120e-5
1.235,   7.166e-5
1.237,   7.179e-5
1.239,   7.159e-5
1.241,   7.172e-5
1.243,   7.172e-5
1.245,   7.210e-5
1.247,   7.198e-5
1.249,   7.192e-5
1.251,   7.185e-5
1.253,   7.229e-5
1.255,   7.209e-5
1.257,   7.197e-5
1.259,   7.188e-5
1.261,   7.241e-5
1.263,   7.228e-5
1.265,   7.198e-5
1.267,   7.218e-5
1.269,   7.251e-5
1.271,   7.236e-5
1.273,   7.238e-5
1.275,   7.217e-5
1.277,   7.269e-5
1.279,   7.256e-5
1.281,   7.221e-5
1.283,   7.224e-5
1.285,   7.251e-5
1.287,   7.272e-5
1.289,   7.256e-5
1.291,   7.255e-5
1.293,   7.290e-5
1.295,   7.312e-5
1.297,   7.292e-5
1.299,   7.301e-5
1.301,   7.349e-5
1.303,   7.346e-5
1.305,   7.307e-5
1.307,   7.371e-5
1.309,   7.322e-5
1.311,   7.424e-5
1.313,   7.309e-5
1.315,   7.474e-5
1.317,   7.421e-5
1.319,   7.400e-5
1.321,   7.542e-5
1.323,   7.458e-5
1.325,   7.500e-5
1.327,   7.651e-5
1.329,   7.603e-5
1.331,   7.552e-5
1.333,   7.584e-5
1.335,   7.676e-5
1.337,   7.797e-5
1.339,   7.851e-5
1.341,   7.918e-5
1.343,   7.938e-5
1.345,   7.972e-5
1.347,   8.017e-5
1.349,   8.025e-5
1.351,   8.133e-5
1.353,   8.425e-5
1.355,   8.497e-5
1.357,   8.473e-5
1.359,   8.887e-5
1.361,   8.749e-5
1.363,   9.221e-5
1.365,   9.201e-5
1.367,   9.521e-5
1.369,   9.889e-5
1.371,   1.000e-4
1.373,   1.041e-4
1.375,   1.070e-4
1.377,   1.129e-4
1.379,   1.180e-4
1.381,   1.220e-4
1.383,   1.300e-4
1.385,   1.384e-4
1.387,   1.463e-4
1.389,   1.598e-4
1.391,   1.669e-4
1.393,   1.779e-4
1.395,   1.901e-4
1.397,   2.192e-4
1.399,   2.300e-4
1.401,   2.485e-4
1.403,   2.762e-4
1.405,   3.064e-4
1.407,   3.378e-4
1.409,   3.780e-4
1.411,   4.152e-4
1.413,   4.590e-4
1.415,   5.175e-4
1.417,   5.785e-4
1.419,   6.385e-4
1.421,   7.162e-4
1.423,   8.034e-4
1.425,   8.898e-4
1.427,   9.976e-4
1.429,   1.116e-3
1.431,   1.238e-3
1.433,   1.381e-3
1.435,   1.543e-3
1.437,   1.719e-3
1.439,   1.915e-3
1.441,   2.129e-3
1.443,   2.371e-3
1.445,   2.631e-3
1.447,   2.913e-3
1.449,   3.233e-3
1.451,   3.579e-3
1.453,   3.946e-3
1.455,   4.371e-3
1.457,   4.803e-3
1.459,   5.285e-3
1.461,   5.780e-3
1.463,   6.295e-3
1.465,   6.866e-3
1.467,   7.507e-3
1.469,   8.170e-3
1.471,   8.845e-3
1.473,   9.498e-3
1.475,   1.006e-2
1.477,   1.006e-2
1.479,   1.006e-2

File: B2_BEST_400#13_High_Quality-233mV.txt
Jan. 14, 2023   14:38:14
Linear Sweep Voltammetry
File: d:\current work\al_oer\electrochemical test data\batch 2\400\B2_BEST_400#13_High_Quality-233mV.txt
Data Source:  Experiment
Instrument Model:  CHI660E
Header:
Note:

Init E (V) = 1.099

Final E (V) = 1.517

Scan Rate (V/s) = 0.010
Sample Interval (V) = 0.001
Quiet Time (sec) = 2
Sensitivity (A/V) = 0.001
Comp R (ohm) = 6.4

Results:

Channel 1:

Potential/V, Current/A
1.099,   3.133e-4
1.101,   2.731e-4
1.103,   2.367e-4
1.105,   2.085e-4
1.107,   1.868e-4
1.109,   1.697e-4
1.111,   1.557e-4
1.113,   1.444e-4
1.115,   1.349e-4
1.117,   1.270e-4
1.119,   1.204e-4
1.121,   1.145e-4
1.123,   1.095e-4
1.125,   1.053e-4
1.127,   1.014e-4
1.129,   9.793e-5
1.131,   9.491e-5
1.133,   9.258e-5
1.135,   9.019e-5
1.137,   8.806e-5
1.139,   8.621e-5
1.141,   8.463e-5
1.143,   8.311e-5
1.145,   8.182e-5
1.147,   8.067e-5
1.149,   7.946e-5
1.151,   7.864e-5
1.153,   7.769e-5
1.155,   7.681e-5
1.157,   7.611e-5
1.159,   7.547e-5
1.161,   7.488e-5
1.163,   7.422e-5
1.165,   7.389e-5
1.167,   7.349e-5
1.169,   7.299e-5
1.171,   7.273e-5
1.173,   7.251e-5
1.175,   7.219e-5
1.177,   7.189e-5
1.179,   7.165e-5
1.181,   7.152e-5
1.183,   7.146e-5
1.185,   7.122e-5
1.187,   7.106e-5
1.189,   7.115e-5
1.191,   7.104e-5
1.193,   7.087e-5
1.195,   7.078e-5
1.197,   7.095e-5
1.199,   7.082e-5
1.201,   7.076e-5
1.203,   7.080e-5
1.205,   7.081e-5
1.207,   7.083e-5
1.209,   7.093e-5
1.211,   7.078e-5
1.213,   7.087e-5
1.215,   7.096e-5
1.217,   7.093e-5
1.219,   7.089e-5
1.221,   7.103e-5
1.223,   7.110e-5
1.225,   7.100e-5
1.227,   7.107e-5
1.229,   7.121e-5
1.231,   7.119e-5
1.233,   7.114e-5
1.235,   7.132e-5
1.237,   7.129e-5
1.239,   7.127e-5
1.241,   7.131e-5
1.243,   7.129e-5
1.245,   7.145e-5
1.247,   7.142e-5
1.249,   7.135e-5
1.251,   7.137e-5
1.253,   7.146e-5
1.255,   7.142e-5
1.257,   7.129e-5
1.259,   7.135e-5
1.261,   7.152e-5
1.263,   7.139e-5
1.265,   7.123e-5
1.267,   7.133e-5
1.269,   7.134e-5
1.271,   7.132e-5
1.273,   7.131e-5
1.275,   7.118e-5
1.277,   7.126e-5
1.279,   7.133e-5
1.281,   7.116e-5
1.283,   7.107e-5
1.285,   7.128e-5
1.287,   7.126e-5
1.289,   7.104e-5
1.291,   7.107e-5
1.293,   7.125e-5
1.295,   7.116e-5
1.297,   7.104e-5
1.299,   7.113e-5
1.301,   7.123e-5
1.303,   7.119e-5
1.305,   7.124e-5
1.307,   7.124e-5
1.309,   7.133e-5
1.311,   7.144e-5
1.313,   7.142e-5
1.315,   7.144e-5
1.317,   7.156e-5
1.319,   7.180e-5
1.321,   7.180e-5
1.323,   7.186e-5
1.325,   7.236e-5
1.327,   7.250e-5
1.329,   7.251e-5
1.331,   7.275e-5
1.333,   7.319e-5
1.335,   7.338e-5
1.337,   7.374e-5
1.339,   7.396e-5
1.341,   7.447e-5
1.343,   7.489e-5
1.345,   7.536e-5
1.347,   7.592e-5
1.349,   7.667e-5
1.351,   7.743e-5
1.353,   7.805e-5
1.355,   7.881e-5
1.357,   7.991e-5
1.359,   8.087e-5
1.361,   8.186e-5
1.363,   8.339e-5
1.365,   8.470e-5
1.367,   8.628e-5
1.369,   8.773e-5
1.371,   8.957e-5
1.373,   9.177e-5
1.375,   9.415e-5
1.377,   9.663e-5
1.379,   9.937e-5
1.381,   1.027e-4
1.383,   1.061e-4
1.385,   1.100e-4
1.387,   1.142e-4
1.389,   1.193e-4
1.391,   1.245e-4
1.393,   1.305e-4
1.395,   1.371e-4
1.397,   1.447e-4
1.399,   1.531e-4
1.401,   1.623e-4
1.403,   1.725e-4
1.405,   1.841e-4
1.407,   1.966e-4
1.409,   2.105e-4
1.411,   2.259e-4
1.413,   2.440e-4
1.415,   2.632e-4
1.417,   2.840e-4
1.419,   3.069e-4
1.421,   3.328e-4
1.423,   3.607e-4
1.425,   3.916e-4
1.427,   4.251e-4
1.429,   4.620e-4
1.431,   5.019e-4
1.433,   5.448e-4
1.435,   5.949e-4
1.437,   6.461e-4
1.439,   7.042e-4
1.441,   7.689e-4
1.443,   8.353e-4
1.445,   9.081e-4
1.447,   9.866e-4
1.449,   1.071e-3
1.451,   1.162e-3
1.453,   1.263e-3
1.455,   1.368e-3
1.457,   1.484e-3
1.459,   1.609e-3
1.461,   1.753e-3
1.463,   1.894e-3
1.465,   2.050e-3
1.467,   2.219e-3
1.469,   2.396e-3
1.471,   2.581e-3
1.473,   2.779e-3
1.475,   2.992e-3
1.477,   3.219e-3
1.479,   3.475e-3
1.481,   3.734e-3
1.483,   4.001e-3
1.485,   4.280e-3
1.487,   4.571e-3
1.489,   4.898e-3
1.491,   5.251e-3
1.493,   5.604e-3
1.495,   5.986e-3
1.497,   6.356e-3
1.499,   6.760e-3
1.501,   7.199e-3
1.503,   7.619e-3
1.505,   8.130e-3
1.507,   8.606e-3
1.509,   9.161e-3
1.511,   9.620e-3
1.513,   1.004e-2
1.515,   1.006e-2
1.517,   1.006e-2

File: B2_BEST_400#14_High_Quality-218mV.txt
Jan. 14, 2023   14:48:19
Linear Sweep Voltammetry
File: d:\current work\al_oer\electrochemical test data\batch 2\400\B2_BEST_400#14_High_Quality-218mV.txt
Data Source:  Experiment
Instrument Model:  CHI660E
Header:
Note:

Init E (V) = 1.099

Final E (V) = 1.537

Scan Rate (V/s) = 0.010
Sample Interval (V) = 0.001
Quiet Time (sec) = 2
Sensitivity (A/V) = 0.001
Comp R (ohm) = 5.6

Results:

Channel 1:

Potential/V, Current/A
1.099,   9.270e-4
1.101,   8.068e-4
1.103,   7.109e-4
1.105,   6.331e-4
1.107,   5.688e-4
1.109,   5.156e-4
1.111,   4.711e-4
1.113,   4.338e-4
1.115,   4.012e-4
1.117,   3.739e-4
1.119,   3.505e-4
1.121,   3.300e-4
1.123,   3.117e-4
1.125,   2.956e-4
1.127,   2.818e-4
1.129,   2.688e-4
1.131,   2.572e-4
1.133,   2.475e-4
1.135,   2.388e-4
1.137,   2.306e-4
1.139,   2.231e-4
1.141,   2.167e-4
1.143,   2.106e-4
1.145,   2.051e-4
1.147,   2.002e-4
1.149,   1.957e-4
1.151,   1.915e-4
1.153,   1.875e-4
1.155,   1.839e-4
1.157,   1.809e-4
1.159,   1.781e-4
1.161,   1.749e-4
1.163,   1.725e-4
1.165,   1.704e-4
1.167,   1.683e-4
1.169,   1.664e-4
1.171,   1.647e-4
1.173,   1.632e-4
1.175,   1.616e-4
1.177,   1.600e-4
1.179,   1.587e-4
1.181,   1.576e-4
1.183,   1.568e-4
1.185,   1.558e-4
1.187,   1.551e-4
1.189,   1.541e-4
1.191,   1.537e-4
1.193,   1.525e-4
1.195,   1.515e-4
1.197,   1.510e-4
1.199,   1.505e-4
1.201,   1.498e-4
1.203,   1.495e-4
1.205,   1.488e-4
1.207,   1.485e-4
1.209,   1.482e-4
1.211,   1.477e-4
1.213,   1.476e-4
1.215,   1.471e-4
1.217,   1.468e-4
1.219,   1.468e-4
1.221,   1.467e-4
1.223,   1.463e-4
1.225,   1.463e-4
1.227,   1.462e-4
1.229,   1.462e-4
1.231,   1.460e-4
1.233,   1.459e-4
1.235,   1.458e-4
1.237,   1.459e-4
1.239,   1.458e-4
1.241,   1.458e-4
1.243,   1.455e-4
1.245,   1.457e-4
1.247,   1.458e-4
1.249,   1.456e-4
1.251,   1.457e-4
1.253,   1.458e-4
1.255,   1.459e-4
1.257,   1.459e-4
1.259,   1.458e-4
1.261,   1.460e-4
1.263,   1.459e-4
1.265,   1.459e-4
1.267,   1.460e-4
1.269,   1.462e-4
1.271,   1.463e-4
1.273,   1.464e-4
1.275,   1.463e-4
1.277,   1.466e-4
1.279,   1.466e-4
1.281,   1.468e-4
1.283,   1.469e-4
1.285,   1.470e-4
1.287,   1.473e-4
1.289,   1.473e-4
1.291,   1.473e-4
1.293,   1.476e-4
1.295,   1.478e-4
1.297,   1.479e-4
1.299,   1.482e-4
1.301,   1.483e-4
1.303,   1.484e-4
1.305,   1.486e-4
1.307,   1.487e-4
1.309,   1.491e-4
1.311,   1.495e-4
1.313,   1.497e-4
1.315,   1.499e-4
1.317,   1.504e-4
1.319,   1.508e-4
1.321,   1.511e-4
1.323,   1.514e-4
1.325,   1.522e-4
1.327,   1.524e-4
1.329,   1.529e-4
1.331,   1.532e-4
1.333,   1.540e-4
1.335,   1.544e-4
1.337,   1.550e-4
1.339,   1.556e-4
1.341,   1.565e-4
1.343,   1.570e-4
1.345,   1.577e-4
1.347,   1.585e-4
1.349,   1.596e-4
1.351,   1.608e-4
1.353,   1.620e-4
1.355,   1.632e-4
1.357,   1.650e-4
1.359,   1.667e-4
1.361,   1.687e-4
1.363,   1.708e-4
1.365,   1.730e-4
1.367,   1.758e-4
1.369,   1.789e-4
1.371,   1.824e-4
1.373,   1.866e-4
1.375,   1.913e-4
1.377,   1.967e-4
1.379,   2.022e-4
1.381,   2.091e-4
1.383,   2.169e-4
1.385,   2.254e-4
1.387,   2.352e-4
1.389,   2.466e-4
1.391,   2.594e-4
1.393,   2.738e-4
1.395,   2.897e-4
1.397,   3.080e-4
1.399,   3.280e-4
1.401,   3.498e-4
1.403,   3.741e-4
1.405,   4.018e-4
1.407,   4.316e-4
1.409,   4.643e-4
1.411,   5.001e-4
1.413,   5.391e-4
1.415,   5.816e-4
1.417,   6.272e-4
1.419,   6.763e-4
1.421,   7.287e-4
1.423,   7.859e-4
1.425,   8.463e-4
1.427,   9.099e-4
1.429,   9.815e-4
1.431,   1.056e-3
1.433,   1.134e-3
1.435,   1.219e-3
1.437,   1.307e-3
1.439,   1.401e-3
1.441,   1.503e-3
1.443,   1.606e-3
1.445,   1.717e-3
1.447,   1.833e-3
1.449,   1.950e-3
1.451,   2.075e-3
1.453,   2.204e-3
1.455,   2.343e-3
1.457,   2.484e-3
1.459,   2.629e-3
1.461,   2.774e-3
1.463,   2.931e-3
1.465,   3.093e-3
1.467,   3.258e-3
1.469,   3.432e-3
1.471,   3.606e-3
1.473,   3.785e-3
1.475,   3.967e-3
1.477,   4.156e-3
1.479,   4.385e-3
1.481,   4.568e-3
1.483,   4.773e-3
1.485,   4.967e-3
1.487,   5.165e-3
1.489,   5.410e-3
1.491,   5.627e-3
1.493,   5.812e-3
1.495,   5.999e-3
1.497,   6.197e-3
1.499,   6.606e-3
1.501,   6.815e-3
1.503,   6.979e-3
1.505,   7.164e-3
1.507,   7.430e-3
1.509,   7.591e-3
1.511,   7.747e-3
1.513,   7.892e-3
1.515,   8.081e-3
1.517,   8.561e-3
1.519,   8.725e-3
1.521,   8.933e-3
1.523,   9.038e-3
1.525,   9.141e-3
1.527,   9.262e-3
1.529,   9.409e-3
1.531,   9.508e-3
1.533,   9.874e-3
1.535,   1.004e-2
1.537,   1.006e-2