Folder: DASH/Experimental Records and Raw Data/batch2/final400 (part 3)

File: B2_VARIANCE_400#9_High_Quality-221mV.txt
Jan. 13, 2023   15:47:37
Linear Sweep Voltammetry
File: d:\current work\al_oer\electrochemical test data\batch 2\400\B2_VARIANCE_400#9_High_Quality-221mV.txt
Data Source:  Experiment
Instrument Model:  CHI660E
Header:
Note:

Init E (V) = 1.098

Final E (V) = 1.503

Scan Rate (V/s) = 0.010
Sample Interval (V) = 0.001
Quiet Time (sec) = 2
Sensitivity (A/V) = 0.001
Comp R (ohm) = 5.6

Results:

Channel 1:

Potential/V, Current/A
1.098,   1.499e-4
1.100,   1.472e-4
1.102,   1.317e-4
1.104,   1.196e-4
1.106,   1.100e-4
1.108,   1.022e-4
1.110,   9.556e-5
1.112,   9.052e-5
1.114,   8.621e-5
1.116,   8.283e-5
1.118,   7.989e-5
1.120,   7.713e-5
1.122,   7.477e-5
1.124,   7.296e-5
1.126,   7.129e-5
1.128,   6.962e-5
1.130,   6.828e-5
1.132,   6.738e-5
1.134,   6.627e-5
1.136,   6.518e-5
1.138,   6.437e-5
1.140,   6.377e-5
1.142,   6.301e-5
1.144,   6.234e-5
1.146,   6.190e-5
1.148,   6.152e-5
1.150,   6.103e-5
1.152,   6.056e-5
1.154,   6.021e-5
1.156,   6.006e-5
1.158,   5.979e-5
1.160,   5.942e-5
1.162,   5.919e-5
1.164,   5.924e-5
1.166,   5.888e-5
1.168,   5.868e-5
1.170,   5.877e-5
1.172,   5.862e-5
1.174,   5.849e-5
1.176,   5.836e-5
1.178,   5.816e-5
1.180,   5.833e-5
1.182,   5.829e-5
1.184,   5.802e-5
1.186,   5.804e-5
1.188,   5.825e-5
1.190,   5.814e-5
1.192,   5.807e-5
1.194,   5.803e-5
1.196,   5.828e-5
1.198,   5.819e-5
1.200,   5.806e-5
1.202,   5.829e-5
1.204,   5.837e-5
1.206,   5.833e-5
1.208,   5.839e-5
1.210,   5.824e-5
1.212,   5.853e-5
1.214,   5.860e-5
1.216,   5.838e-5
1.218,   5.848e-5
1.220,   5.870e-5
1.222,   5.874e-5
1.224,   5.863e-5
1.226,   5.865e-5
1.228,   5.890e-5
1.230,   5.892e-5
1.232,   5.875e-5
1.234,   5.912e-5
1.236,   5.913e-5
1.238,   5.919e-5
1.240,   5.908e-5
1.242,   5.902e-5
1.244,   5.924e-5
1.246,   5.926e-5
1.248,   5.926e-5
1.250,   5.922e-5
1.252,   5.943e-5
1.254,   5.952e-5
1.256,   5.936e-5
1.258,   5.941e-5
1.260,   5.969e-5
1.262,   5.965e-5
1.264,   5.952e-5
1.266,   5.981e-5
1.268,   5.992e-5
1.270,   5.979e-5
1.272,   5.987e-5
1.274,   5.986e-5
1.276,   6.003e-5
1.278,   6.016e-5
1.280,   6.005e-5
1.282,   5.996e-5
1.284,   6.018e-5
1.286,   6.031e-5
1.288,   6.017e-5
1.290,   6.006e-5
1.292,   6.044e-5
1.294,   6.045e-5
1.296,   6.044e-5
1.298,   6.065e-5
1.300,   6.075e-5
1.302,   6.079e-5
1.304,   6.086e-5
1.306,   6.087e-5
1.308,   6.115e-5
1.310,   6.133e-5
1.312,   6.118e-5
1.314,   6.141e-5
1.316,   6.173e-5
1.318,   6.185e-5
1.320,   6.187e-5
1.322,   6.199e-5
1.324,   6.257e-5
1.326,   6.255e-5
1.328,   6.263e-5
1.330,   6.296e-5
1.332,   6.327e-5
1.334,   6.350e-5
1.336,   6.381e-5
1.338,   6.388e-5
1.340,   6.452e-5
1.342,   6.477e-5
1.344,   6.499e-5
1.346,   6.541e-5
1.348,   6.601e-5
1.350,   6.659e-5
1.352,   6.708e-5
1.354,   6.766e-5
1.356,   6.856e-5
1.358,   6.925e-5
1.360,   7.001e-5
1.362,   7.126e-5
1.364,   7.247e-5
1.366,   7.361e-5
1.368,   7.506e-5
1.370,   7.661e-5
1.372,   7.879e-5
1.374,   8.088e-5
1.376,   8.314e-5
1.378,   8.582e-5
1.380,   8.913e-5
1.382,   9.265e-5
1.384,   9.659e-5
1.386,   1.012e-4
1.388,   1.068e-4
1.390,   1.127e-4
1.392,   1.196e-4
1.394,   1.274e-4
1.396,   1.365e-4
1.398,   1.466e-4
1.400,   1.582e-4
1.402,   1.712e-4
1.404,   1.863e-4
1.406,   2.028e-4
1.408,   2.218e-4
1.410,   2.434e-4
1.412,   2.678e-4
1.414,   2.950e-4
1.416,   3.258e-4
1.418,   3.596e-4
1.420,   3.982e-4
1.422,   4.409e-4
1.424,   4.887e-4
1.426,   5.416e-4
1.428,   6.010e-4
1.430,   6.664e-4
1.432,   7.390e-4
1.434,   8.194e-4
1.436,   9.082e-4
1.438,   1.005e-3
1.440,   1.113e-3
1.442,   1.231e-3
1.444,   1.360e-3
1.446,   1.502e-3
1.448,   1.656e-3
1.450,   1.824e-3
1.452,   2.006e-3
1.454,   2.205e-3
1.456,   2.420e-3
1.458,   2.650e-3
1.460,   2.894e-3
1.462,   3.163e-3
1.464,   3.483e-3
1.466,   3.785e-3
1.468,   4.101e-3
1.470,   4.442e-3
1.472,   4.798e-3
1.474,   5.158e-3
1.476,   5.546e-3
1.478,   5.951e-3
1.480,   6.533e-3
1.482,   6.915e-3
1.484,   7.378e-3
1.486,   7.772e-3
1.488,   8.177e-3
1.490,   8.637e-3
1.492,   1.004e-2
1.494,   1.006e-2
1.496,   1.006e-2
1.498,   1.006e-2
1.500,   1.006e-2
1.502,   1.006e-2
1.503,   1.006e-2