Folder: DASH/Experimental Records and Raw Data/batch2/final500 (part 2)

File: B2_BEST_500#11_Full-301mV.txt
Jan. 18, 2023   17:13:15
Linear Sweep Voltammetry
File: d:\current work\al_oer\electrochemical test data\batch 2\500\B2_BEST_500#11_Full-301mV.txt
Data Source:  Experiment
Instrument Model:  CHI660E
Header:
Note:

Init E (V) = 1.099

Final E (V) = 1.668

Scan Rate (V/s) = 0.010
Sample Interval (V) = 0.001
Quiet Time (sec) = 2
Sensitivity (A/V) = 0.001
Comp R (ohm) = 4.9

Results:

Channel 1:

Potential/V, Current/A
1.099,   7.962e-5
1.101,   7.069e-5
1.103,   6.160e-5
1.105,   5.470e-5
1.107,   4.922e-5
1.109,   4.497e-5
1.111,   4.155e-5
1.113,   3.874e-5
1.115,   3.651e-5
1.117,   3.462e-5
1.119,   3.301e-5
1.121,   3.171e-5
1.123,   3.049e-5
1.125,   2.953e-5
1.127,   2.863e-5
1.129,   2.797e-5
1.131,   2.727e-5
1.133,   2.678e-5
1.135,   2.631e-5
1.137,   2.582e-5
1.139,   2.549e-5
1.141,   2.523e-5
1.143,   2.490e-5
1.145,   2.466e-5
1.147,   2.447e-5
1.149,   2.430e-5
1.151,   2.406e-5
1.153,   2.398e-5
1.155,   2.383e-5
1.157,   2.377e-5
1.159,   2.373e-5
1.161,   2.363e-5
1.163,   2.353e-5
1.165,   2.359e-5
1.167,   2.356e-5
1.169,   2.348e-5
1.171,   2.358e-5
1.173,   2.359e-5
1.175,   2.354e-5
1.177,   2.353e-5
1.179,   2.361e-5
1.181,   2.365e-5
1.183,   2.368e-5
1.185,   2.374e-5
1.187,   2.374e-5
1.189,   2.385e-5
1.191,   2.396e-5
1.193,   2.386e-5
1.195,   2.396e-5
1.197,   2.421e-5
1.199,   2.418e-5
1.201,   2.417e-5
1.203,   2.438e-5
1.205,   2.448e-5
1.207,   2.447e-5
1.209,   2.466e-5
1.211,   2.476e-5
1.213,   2.481e-5
1.215,   2.497e-5
1.217,   2.500e-5
1.219,   2.506e-5
1.221,   2.528e-5
1.223,   2.542e-5
1.225,   2.534e-5
1.227,   2.552e-5
1.229,   2.573e-5
1.231,   2.576e-5
1.233,   2.588e-5
1.235,   2.602e-5
1.237,   2.601e-5
1.239,   2.621e-5
1.241,   2.634e-5
1.243,   2.632e-5
1.245,   2.647e-5
1.247,   2.663e-5
1.249,   2.668e-5
1.251,   2.671e-5
1.253,   2.697e-5
1.255,   2.703e-5
1.257,   2.705e-5
1.259,   2.717e-5
1.261,   2.736e-5
1.263,   2.738e-5
1.265,   2.747e-5
1.267,   2.760e-5
1.269,   2.770e-5
1.271,   2.778e-5
1.273,   2.795e-5
1.275,   2.796e-5
1.277,   2.805e-5
1.279,   2.825e-5
1.281,   2.835e-5
1.283,   2.833e-5
1.285,   2.845e-5
1.287,   2.868e-5
1.289,   2.866e-5
1.291,   2.876e-5
1.293,   2.900e-5
1.295,   2.904e-5
1.297,   2.907e-5
1.299,   2.934e-5
1.301,   2.945e-5
1.303,   2.946e-5
1.305,   2.966e-5
1.307,   2.983e-5
1.309,   2.995e-5
1.311,   3.015e-5
1.313,   3.032e-5
1.315,   3.041e-5
1.317,   3.064e-5
1.319,   3.083e-5
1.321,   3.091e-5
1.323,   3.108e-5
1.325,   3.143e-5
1.327,   3.157e-5
1.329,   3.177e-5
1.331,   3.198e-5
1.333,   3.226e-5
1.335,   3.249e-5
1.337,   3.279e-5
1.339,   3.292e-5
1.341,   3.327e-5
1.343,   3.367e-5
1.345,   3.390e-5
1.347,   3.413e-5
1.349,   3.461e-5
1.351,   3.493e-5
1.353,   3.519e-5
1.355,   3.560e-5
1.357,   3.605e-5
1.359,   3.636e-5
1.361,   3.681e-5
1.363,   3.723e-5
1.365,   3.762e-5
1.367,   3.811e-5
1.369,   3.860e-5
1.371,   3.912e-5
1.373,   3.965e-5
1.375,   4.024e-5
1.377,   4.071e-5
1.379,   4.128e-5
1.381,   4.199e-5
1.383,   4.256e-5
1.385,   4.319e-5
1.387,   4.395e-5
1.389,   4.471e-5
1.391,   4.540e-5
1.393,   4.629e-5
1.395,   4.714e-5
1.397,   4.810e-5
1.399,   4.915e-5
1.401,   5.019e-5
1.403,   5.122e-5
1.405,   5.254e-5
1.407,   5.397e-5
1.409,   5.526e-5
1.411,   5.684e-5
1.413,   5.863e-5
1.415,   6.045e-5
1.417,   6.238e-5
1.419,   6.480e-5
1.421,   6.718e-5
1.423,   6.980e-5
1.425,   7.284e-5
1.427,   7.624e-5
1.429,   7.983e-5
1.431,   8.377e-5
1.433,   8.784e-5
1.435,   9.266e-5
1.437,   9.810e-5
1.439,   1.038e-4
1.441,   1.099e-4
1.443,   1.170e-4
1.445,   1.246e-4
1.447,   1.328e-4
1.449,   1.418e-4
1.451,   1.515e-4
1.453,   1.622e-4
1.455,   1.738e-4
1.457,   1.865e-4
1.459,   2.000e-4
1.461,   2.149e-4
1.463,   2.310e-4
1.465,   2.482e-4
1.467,   2.672e-4
1.469,   2.873e-4
1.471,   3.089e-4
1.473,   3.324e-4
1.475,   3.566e-4
1.477,   3.831e-4
1.479,   4.114e-4
1.481,   4.415e-4
1.483,   4.735e-4
1.485,   5.073e-4
1.487,   5.436e-4
1.489,   5.823e-4
1.491,   6.230e-4
1.493,   6.660e-4
1.495,   7.119e-4
1.497,   7.578e-4
1.499,   8.074e-4
1.501,   8.588e-4
1.503,   9.124e-4
1.505,   9.684e-4
1.507,   1.028e-3
1.509,   1.091e-3
1.511,   1.154e-3
1.513,   1.219e-3
1.515,   1.286e-3
1.517,   1.357e-3
1.519,   1.432e-3
1.521,   1.506e-3
1.523,   1.584e-3
1.525,   1.664e-3
1.527,   1.744e-3
1.529,   1.824e-3
1.531,   1.911e-3
1.533,   2.000e-3
1.535,   2.089e-3
1.537,   2.185e-3
1.539,   2.285e-3
1.541,   2.381e-3
1.543,   2.479e-3
1.545,   2.594e-3
1.547,   2.696e-3
1.549,   2.803e-3
1.551,   2.911e-3
1.553,   3.008e-3
1.555,   3.125e-3
1.557,   3.242e-3
1.559,   3.361e-3
1.561,   3.521e-3
1.563,   3.628e-3
1.565,   3.748e-3
1.567,   3.890e-3
1.569,   4.081e-3
1.571,   4.200e-3
1.573,   4.315e-3
1.575,   4.434e-3
1.577,   4.588e-3
1.579,   4.700e-3
1.581,   4.897e-3
1.583,   5.092e-3
1.585,   5.203e-3
1.587,   5.350e-3
1.589,   5.559e-3
1.591,   5.673e-3
1.593,   5.821e-3
1.595,   6.027e-3
1.597,   6.235e-3
1.599,   6.381e-3
1.601,   6.575e-3
1.603,   6.697e-3
1.605,   6.883e-3
1.607,   7.049e-3
1.609,   7.233e-3
1.611,   7.478e-3
1.613,   7.645e-3
1.615,   7.845e-3
1.617,   8.025e-3
1.619,   8.260e-3
1.621,   8.407e-3
1.623,   8.626e-3
1.625,   8.782e-3
1.627,   9.047e-3
1.629,   9.275e-3
1.631,   9.468e-3
1.633,   9.670e-3
1.635,   9.899e-3
1.637,   1.006e-2
1.639,   1.007e-2
1.641,   1.007e-2
1.643,   1.007e-2
1.645,   1.007e-2
1.647,   1.007e-2
1.649,   1.007e-2
1.651,   1.007e-2
1.653,   1.007e-2
1.655,   1.007e-2
1.657,   1.007e-2
1.659,   1.007e-2
1.661,   1.007e-2
1.663,   1.007e-2
1.665,   1.007e-2
1.667,   1.007e-2
1.668,   1.007e-2

File: B2_VARIANCE_500#2_High_Quality-247mV.txt
Jan. 18, 2023   17:03:12
Linear Sweep Voltammetry
File: d:\current work\al_oer\electrochemical test data\batch 2\500\B2_VARIANCE_500#2_High_Quality-247mV.txt
Data Source:  Experiment
Instrument Model:  CHI660E
Header:
Note:

Init E (V) = 1.098

Final E (V) = 1.550

Scan Rate (V/s) = 0.010
Sample Interval (V) = 0.001
Quiet Time (sec) = 2
Sensitivity (A/V) = 0.001
Comp R (ohm) = 4.4

Results:

Channel 1:

Potential/V, Current/A
1.098,   1.980e-4
1.100,   1.770e-4
1.102,   1.549e-4
1.104,   1.381e-4
1.106,   1.247e-4
1.108,   1.140e-4
1.110,   1.050e-4
1.112,   9.772e-5
1.114,   9.157e-5
1.116,   8.645e-5
1.118,   8.198e-5
1.120,   7.828e-5
1.122,   7.484e-5
1.124,   7.213e-5
1.126,   6.952e-5
1.128,   6.738e-5
1.130,   6.540e-5
1.132,   6.374e-5
1.134,   6.230e-5
1.136,   6.097e-5
1.138,   5.974e-5
1.140,   5.877e-5
1.142,   5.782e-5
1.144,   5.696e-5
1.146,   5.626e-5
1.148,   5.560e-5
1.150,   5.506e-5
1.152,   5.460e-5
1.154,   5.425e-5
1.156,   5.370e-5
1.158,   5.316e-5
1.160,   5.297e-5
1.162,   5.263e-5
1.164,   5.240e-5
1.166,   5.230e-5
1.168,   5.202e-5
1.170,   5.192e-5
1.172,   5.187e-5
1.174,   5.178e-5
1.176,   5.160e-5
1.178,   5.157e-5
1.180,   5.165e-5
1.182,   5.161e-5
1.184,   5.164e-5
1.186,   5.165e-5
1.188,   5.169e-5
1.190,   5.182e-5
1.192,   5.185e-5
1.194,   5.182e-5
1.196,   5.206e-5
1.198,   5.221e-5
1.200,   5.219e-5
1.202,   5.229e-5
1.204,   5.253e-5
1.206,   5.254e-5
1.208,   5.264e-5
1.210,   5.285e-5
1.212,   5.320e-5
1.214,   5.316e-5
1.216,   5.339e-5
1.218,   5.346e-5
1.220,   5.356e-5
1.222,   5.388e-5
1.224,   5.396e-5
1.226,   5.398e-5
1.228,   5.420e-5
1.230,   5.441e-5
1.232,   5.443e-5
1.234,   5.462e-5
1.236,   5.482e-5
1.238,   5.490e-5
1.240,   5.503e-5
1.242,   5.523e-5
1.244,   5.547e-5
1.246,   5.550e-5
1.248,   5.558e-5
1.250,   5.560e-5
1.252,   5.581e-5
1.254,   5.592e-5
1.256,   5.585e-5
1.258,   5.596e-5
1.260,   5.628e-5
1.262,   5.639e-5
1.264,   5.640e-5
1.266,   5.655e-5
1.268,   5.670e-5
1.270,   5.681e-5
1.272,   5.687e-5
1.274,   5.700e-5
1.276,   5.719e-5
1.278,   5.728e-5
1.280,   5.734e-5
1.282,   5.739e-5
1.284,   5.751e-5
1.286,   5.759e-5
1.288,   5.762e-5
1.290,   5.767e-5
1.292,   5.803e-5
1.294,   5.809e-5
1.296,   5.809e-5
1.298,   5.828e-5
1.300,   5.854e-5
1.302,   5.856e-5
1.304,   5.865e-5
1.306,   5.879e-5
1.308,   5.885e-5
1.310,   5.915e-5
1.312,   5.928e-5
1.314,   5.932e-5
1.316,   5.958e-5
1.318,   5.987e-5
1.320,   5.997e-5
1.322,   6.018e-5
1.324,   6.060e-5
1.326,   6.075e-5
1.328,   6.087e-5
1.330,   6.131e-5
1.332,   6.169e-5
1.334,   6.186e-5
1.336,   6.224e-5
1.338,   6.252e-5
1.340,   6.297e-5
1.342,   6.327e-5
1.344,   6.367e-5
1.346,   6.412e-5
1.348,   6.466e-5
1.350,   6.522e-5
1.352,   6.558e-5
1.354,   6.606e-5
1.356,   6.684e-5
1.358,   6.736e-5
1.360,   6.796e-5
1.362,   6.877e-5
1.364,   6.948e-5
1.366,   7.017e-5
1.368,   7.107e-5
1.370,   7.194e-5
1.372,   7.303e-5
1.374,   7.415e-5
1.376,   7.533e-5
1.378,   7.651e-5
1.380,   7.819e-5
1.382,   7.988e-5
1.384,   8.148e-5
1.386,   8.369e-5
1.388,   8.617e-5
1.390,   8.852e-5
1.392,   9.122e-5
1.394,   9.456e-5
1.396,   9.816e-5
1.398,   1.022e-4
1.400,   1.067e-4
1.402,   1.117e-4
1.404,   1.176e-4
1.406,   1.241e-4
1.408,   1.314e-4
1.410,   1.394e-4
1.412,   1.485e-4
1.414,   1.589e-4
1.416,   1.699e-4
1.418,   1.826e-4
1.420,   1.970e-4
1.422,   2.123e-4
1.424,   2.293e-4
1.426,   2.482e-4
1.428,   2.684e-4
1.430,   2.909e-4
1.432,   3.152e-4
1.434,   3.431e-4
1.436,   3.757e-4
1.438,   4.083e-4
1.440,   4.429e-4
1.442,   4.802e-4
1.444,   5.242e-4
1.446,   5.687e-4
1.448,   6.196e-4
1.450,   6.723e-4
1.452,   7.283e-4
1.454,   7.912e-4
1.456,   8.539e-4
1.458,   9.254e-4
1.460,   1.000e-3
1.462,   1.084e-3
1.464,   1.174e-3
1.466,   1.269e-3
1.468,   1.368e-3
1.470,   1.474e-3
1.472,   1.584e-3
1.474,   1.704e-3
1.476,   1.830e-3
1.478,   1.963e-3
1.480,   2.106e-3
1.482,   2.254e-3
1.484,   2.414e-3
1.486,   2.575e-3
1.488,   2.747e-3
1.490,   2.925e-3
1.492,   3.117e-3
1.494,   3.308e-3
1.496,   3.519e-3
1.498,   3.737e-3
1.500,   3.969e-3
1.502,   4.203e-3
1.504,   4.446e-3
1.506,   4.684e-3
1.508,   4.934e-3
1.510,   5.221e-3
1.512,   5.494e-3
1.514,   5.763e-3
1.516,   6.037e-3
1.518,   6.329e-3
1.520,   6.623e-3
1.522,   6.954e-3
1.524,   7.266e-3
1.526,   7.568e-3
1.528,   7.884e-3
1.530,   8.268e-3
1.532,   8.636e-3
1.534,   8.988e-3
1.536,   9.326e-3
1.538,   9.646e-3
1.540,   1.003e-2
1.542,   1.007e-2
1.544,   1.007e-2
1.546,   1.007e-2
1.548,   1.007e-2
1.550,   1.007e-2

File: B2_VARIANCE_500#6_High_Quality-311mV.txt
Jan. 18, 2023   16:20:27
Linear Sweep Voltammetry
File: d:\current work\al_oer\electrochemical test data\batch 2\500\B2_VARIANCE_500#6_High_Quality-311mV.txt
Data Source:  Experiment
Instrument Model:  CHI660E
Header:
Note:

Init E (V) = 1.098

Final E (V) = 1.669

Scan Rate (V/s) = 0.010
Sample Interval (V) = 0.001
Quiet Time (sec) = 2
Sensitivity (A/V) = 0.001
Comp R (ohm) = 5.1

Results:

Channel 1:

Potential/V, Current/A
1.098,   9.556e-5
1.100,   8.487e-5
1.102,   7.422e-5
1.104,   6.587e-5
1.106,   5.923e-5
1.108,   5.382e-5
1.110,   4.945e-5
1.112,   4.574e-5
1.114,   4.263e-5
1.116,   4.002e-5
1.118,   3.790e-5
1.120,   3.593e-5
1.122,   3.421e-5
1.124,   3.284e-5
1.126,   3.158e-5
1.128,   3.048e-5
1.130,   2.957e-5
1.132,   2.874e-5
1.134,   2.792e-5
1.136,   2.728e-5
1.138,   2.671e-5
1.140,   2.618e-5
1.142,   2.567e-5
1.144,   2.528e-5
1.146,   2.487e-5
1.148,   2.459e-5
1.150,   2.426e-5
1.152,   2.399e-5
1.154,   2.370e-5
1.156,   2.358e-5
1.158,   2.333e-5
1.160,   2.312e-5
1.162,   2.294e-5
1.164,   2.284e-5
1.166,   2.276e-5
1.168,   2.265e-5
1.170,   2.253e-5
1.172,   2.252e-5
1.174,   2.246e-5
1.176,   2.238e-5
1.178,   2.229e-5
1.180,   2.224e-5
1.182,   2.225e-5
1.184,   2.218e-5
1.186,   2.217e-5
1.188,   2.223e-5
1.190,   2.220e-5
1.192,   2.221e-5
1.194,   2.221e-5
1.196,   2.224e-5
1.198,   2.224e-5
1.200,   2.229e-5
1.202,   2.226e-5
1.204,   2.232e-5
1.206,   2.242e-5
1.208,   2.243e-5
1.210,   2.238e-5
1.212,   2.255e-5
1.214,   2.259e-5
1.216,   2.260e-5
1.218,   2.264e-5
1.220,   2.274e-5
1.222,   2.278e-5
1.224,   2.282e-5
1.226,   2.293e-5
1.228,   2.295e-5
1.230,   2.300e-5
1.232,   2.309e-5
1.234,   2.309e-5
1.236,   2.320e-5
1.238,   2.329e-5
1.240,   2.331e-5
1.242,   2.337e-5
1.244,   2.353e-5
1.246,   2.351e-5
1.248,   2.359e-5
1.250,   2.362e-5
1.252,   2.372e-5
1.254,   2.375e-5
1.256,   2.386e-5
1.258,   2.388e-5
1.260,   2.400e-5
1.262,   2.410e-5
1.264,   2.413e-5
1.266,   2.422e-5
1.268,   2.436e-5
1.270,   2.434e-5
1.272,   2.442e-5
1.274,   2.449e-5
1.276,   2.462e-5
1.278,   2.465e-5
1.280,   2.476e-5
1.282,   2.485e-5
1.284,   2.501e-5
1.286,   2.505e-5
1.288,   2.512e-5
1.290,   2.521e-5
1.292,   2.531e-5
1.294,   2.547e-5
1.296,   2.553e-5
1.298,   2.566e-5
1.300,   2.579e-5
1.302,   2.594e-5
1.304,   2.600e-5
1.306,   2.611e-5
1.308,   2.637e-5
1.310,   2.642e-5
1.312,   2.661e-5
1.314,   2.680e-5
1.316,   2.695e-5
1.318,   2.709e-5
1.320,   2.728e-5
1.322,   2.743e-5
1.324,   2.766e-5
1.326,   2.798e-5
1.328,   2.817e-5
1.330,   2.832e-5
1.332,   2.870e-5
1.334,   2.891e-5
1.336,   2.920e-5
1.338,   2.952e-5
1.340,   2.990e-5
1.342,   3.012e-5
1.344,   3.052e-5
1.346,   3.080e-5
1.348,   3.125e-5
1.350,   3.162e-5
1.352,   3.200e-5
1.354,   3.243e-5
1.356,   3.282e-5
1.358,   3.333e-5
1.360,   3.379e-5
1.362,   3.418e-5
1.364,   3.471e-5
1.366,   3.525e-5
1.368,   3.578e-5
1.370,   3.631e-5
1.372,   3.690e-5
1.374,   3.744e-5
1.376,   3.802e-5
1.378,   3.866e-5
1.380,   3.931e-5
1.382,   3.993e-5
1.384,   4.061e-5
1.386,   4.131e-5
1.388,   4.212e-5
1.390,   4.284e-5
1.392,   4.365e-5
1.394,   4.442e-5
1.396,   4.543e-5
1.398,   4.633e-5
1.400,   4.724e-5
1.402,   4.834e-5
1.404,   4.948e-5
1.406,   5.067e-5
1.408,   5.195e-5
1.410,   5.329e-5
1.412,   5.475e-5
1.414,   5.632e-5
1.416,   5.811e-5
1.418,   5.990e-5
1.420,   6.198e-5
1.422,   6.416e-5
1.424,   6.652e-5
1.426,   6.930e-5
1.428,   7.222e-5
1.430,   7.530e-5
1.432,   7.865e-5
1.434,   8.247e-5
1.436,   8.664e-5
1.438,   9.098e-5
1.440,   9.584e-5
1.442,   1.012e-4
1.444,   1.069e-4
1.446,   1.133e-4
1.448,   1.201e-4
1.450,   1.275e-4
1.452,   1.356e-4
1.454,   1.444e-4
1.456,   1.537e-4
1.458,   1.640e-4
1.460,   1.752e-4
1.462,   1.871e-4
1.464,   2.000e-4
1.466,   2.138e-4
1.468,   2.288e-4
1.470,   2.448e-4
1.472,   2.621e-4
1.474,   2.805e-4
1.476,   3.003e-4
1.478,   3.216e-4
1.480,   3.441e-4
1.482,   3.678e-4
1.484,   3.934e-4
1.486,   4.206e-4
1.488,   4.493e-4
1.490,   4.796e-4
1.492,   5.118e-4
1.494,   5.455e-4
1.496,   5.811e-4
1.498,   6.187e-4
1.500,   6.580e-4
1.502,   6.990e-4
1.504,   7.425e-4
1.506,   7.880e-4
1.508,   8.351e-4
1.510,   8.845e-4
1.512,   9.354e-4
1.514,   9.890e-4
1.516,   1.045e-3
1.518,   1.103e-3
1.520,   1.162e-3
1.522,   1.224e-3
1.524,   1.288e-3
1.526,   1.354e-3
1.528,   1.422e-3
1.530,   1.493e-3
1.532,   1.565e-3
1.534,   1.640e-3
1.536,   1.717e-3
1.538,   1.795e-3
1.540,   1.876e-3
1.542,   1.961e-3
1.544,   2.048e-3
1.546,   2.135e-3
1.548,   2.227e-3
1.550,   2.320e-3
1.552,   2.414e-3
1.554,   2.511e-3
1.556,   2.607e-3
1.558,   2.706e-3
1.560,   2.809e-3
1.562,   2.912e-3
1.564,   3.017e-3
1.566,   3.129e-3
1.568,   3.242e-3
1.570,   3.355e-3
1.572,   3.477e-3
1.574,   3.589e-3
1.576,   3.710e-3
1.578,   3.834e-3
1.580,   3.955e-3
1.582,   4.078e-3
1.584,   4.212e-3
1.586,   4.331e-3
1.588,   4.475e-3
1.590,   4.606e-3
1.592,   4.755e-3
1.594,   4.905e-3
1.596,   5.044e-3
1.598,   5.171e-3
1.600,   5.304e-3
1.602,   5.440e-3
1.604,   5.581e-3
1.606,   5.737e-3
1.608,   5.934e-3
1.610,   6.120e-3
1.612,   6.440e-3
1.614,   6.583e-3
1.616,   6.731e-3
1.618,   6.859e-3
1.620,   7.014e-3
1.622,   7.208e-3
1.624,   7.379e-3
1.626,   7.518e-3
1.628,   7.791e-3
1.630,   7.961e-3
1.632,   8.128e-3
1.634,   8.283e-3
1.636,   8.458e-3
1.638,   8.639e-3
1.640,   8.861e-3
1.642,   9.121e-3
1.644,   9.447e-3
1.646,   9.632e-3
1.648,   9.802e-3
1.650,   9.964e-3
1.652,   1.007e-2
1.654,   1.007e-2
1.656,   1.007e-2
1.658,   1.007e-2
1.660,   1.007e-2
1.662,   1.007e-2
1.664,   1.007e-2
1.666,   1.007e-2
1.668,   1.007e-2
1.669,   1.007e-2

File: B2_VARIANCE_500#7_Full-293mV.txt
Jan. 18, 2023   15:37:15
Linear Sweep Voltammetry
File: d:\current work\al_oer\electrochemical test data\batch 2\500\B2_VARIANCE_500#7_Full-293mV.txt
Data Source:  Experiment
Instrument Model:  CHI660E
Header:
Note:

Init E (V) = 1.098

Final E (V) = 1.682

Scan Rate (V/s) = 0.010
Sample Interval (V) = 0.001
Quiet Time (sec) = 2
Sensitivity (A/V) = 0.001
Comp R (ohm) = 4.9

Results:

Channel 1:

Potential/V, Current/A
1.098,   4.256e-5
1.100,   3.952e-5
1.102,   3.545e-5
1.104,   3.218e-5
1.106,   2.957e-5
1.108,   2.750e-5
1.110,   2.581e-5
1.112,   2.439e-5
1.114,   2.320e-5
1.116,   2.219e-5
1.118,   2.134e-5
1.120,   2.058e-5
1.122,   1.991e-5
1.124,   1.936e-5
1.126,   1.887e-5
1.128,   1.847e-5
1.130,   1.810e-5
1.132,   1.774e-5
1.134,   1.750e-5
1.136,   1.716e-5
1.138,   1.696e-5
1.140,   1.679e-5
1.142,   1.665e-5
1.144,   1.649e-5
1.146,   1.639e-5
1.148,   1.625e-5
1.150,   1.614e-5
1.152,   1.611e-5
1.154,   1.607e-5
1.156,   1.597e-5
1.158,   1.600e-5
1.160,   1.593e-5
1.162,   1.589e-5
1.164,   1.587e-5
1.166,   1.591e-5
1.168,   1.591e-5
1.170,   1.591e-5
1.172,   1.596e-5
1.174,   1.594e-5
1.176,   1.597e-5
1.178,   1.602e-5
1.180,   1.613e-5
1.182,   1.616e-5
1.184,   1.618e-5
1.186,   1.620e-5
1.188,   1.630e-5
1.190,   1.637e-5
1.192,   1.646e-5
1.194,   1.650e-5
1.196,   1.658e-5
1.198,   1.669e-5
1.200,   1.669e-5
1.202,   1.676e-5
1.204,   1.687e-5
1.206,   1.691e-5
1.208,   1.691e-5
1.210,   1.708e-5
1.212,   1.710e-5
1.214,   1.716e-5
1.216,   1.718e-5
1.218,   1.728e-5
1.220,   1.737e-5
1.222,   1.742e-5
1.224,   1.749e-5
1.226,   1.749e-5
1.228,   1.758e-5
1.230,   1.762e-5
1.232,   1.766e-5
1.234,   1.772e-5
1.236,   1.781e-5
1.238,   1.784e-5
1.240,   1.781e-5
1.242,   1.786e-5
1.244,   1.792e-5
1.246,   1.789e-5
1.248,   1.797e-5
1.250,   1.798e-5
1.252,   1.800e-5
1.254,   1.806e-5
1.256,   1.804e-5
1.258,   1.803e-5
1.260,   1.816e-5
1.262,   1.815e-5
1.264,   1.813e-5
1.266,   1.819e-5
1.268,   1.830e-5
1.270,   1.826e-5
1.272,   1.831e-5
1.274,   1.829e-5
1.276,   1.838e-5
1.278,   1.840e-5
1.280,   1.845e-5
1.282,   1.842e-5
1.284,   1.849e-5
1.286,   1.857e-5
1.288,   1.855e-5
1.290,   1.863e-5
1.292,   1.871e-5
1.294,   1.876e-5
1.296,   1.872e-5
1.298,   1.886e-5
1.300,   1.893e-5
1.302,   1.902e-5
1.304,   1.909e-5
1.306,   1.915e-5
1.308,   1.922e-5
1.310,   1.932e-5
1.312,   1.940e-5
1.314,   1.941e-5
1.316,   1.954e-5
1.318,   1.967e-5
1.320,   1.968e-5
1.322,   1.978e-5
1.324,   2.004e-5
1.326,   2.005e-5
1.328,   2.009e-5
1.330,   2.027e-5
1.332,   2.038e-5
1.334,   2.047e-5
1.336,   2.068e-5
1.338,   2.072e-5
1.340,   2.091e-5
1.342,   2.108e-5
1.344,   2.115e-5
1.346,   2.128e-5
1.348,   2.150e-5
1.350,   2.166e-5
1.352,   2.179e-5
1.354,   2.192e-5
1.356,   2.212e-5
1.358,   2.231e-5
1.360,   2.246e-5
1.362,   2.275e-5
1.364,   2.296e-5
1.366,   2.313e-5
1.368,   2.345e-5
1.370,   2.371e-5
1.372,   2.404e-5
1.374,   2.441e-5
1.376,   2.477e-5
1.378,   2.515e-5
1.380,   2.565e-5
1.382,   2.613e-5
1.384,   2.670e-5
1.386,   2.733e-5
1.388,   2.812e-5
1.390,   2.887e-5
1.392,   2.975e-5
1.394,   3.084e-5
1.396,   3.195e-5
1.398,   3.317e-5
1.400,   3.472e-5
1.402,   3.624e-5
1.404,   3.806e-5
1.406,   4.011e-5
1.408,   4.229e-5
1.410,   4.474e-5
1.412,   4.758e-5
1.414,   5.074e-5
1.416,   5.402e-5
1.418,   5.784e-5
1.420,   6.211e-5
1.422,   6.668e-5
1.424,   7.176e-5
1.426,   7.757e-5
1.428,   8.361e-5
1.430,   9.036e-5
1.432,   9.773e-5
1.434,   1.057e-4
1.436,   1.146e-4
1.438,   1.243e-4
1.440,   1.346e-4
1.442,   1.459e-4
1.444,   1.584e-4
1.446,   1.716e-4
1.448,   1.860e-4
1.450,   2.015e-4
1.452,   2.185e-4
1.454,   2.367e-4
1.456,   2.563e-4
1.458,   2.773e-4
1.460,   2.999e-4
1.462,   3.240e-4
1.464,   3.494e-4
1.466,   3.767e-4
1.468,   4.061e-4
1.470,   4.367e-4
1.472,   4.690e-4
1.474,   5.037e-4
1.476,   5.396e-4
1.478,   5.783e-4
1.480,   6.177e-4
1.482,   6.590e-4
1.484,   7.018e-4
1.486,   7.467e-4
1.488,   7.932e-4
1.490,   8.403e-4
1.492,   8.954e-4
1.494,   9.468e-4
1.496,   1.000e-3
1.498,   1.055e-3
1.500,   1.111e-3
1.502,   1.169e-3
1.504,   1.240e-3
1.506,   1.314e-3
1.508,   1.381e-3
1.510,   1.453e-3
1.512,   1.522e-3
1.514,   1.597e-3
1.516,   1.667e-3
1.518,   1.738e-3
1.520,   1.811e-3
1.522,   1.884e-3
1.524,   1.970e-3
1.526,   2.047e-3
1.528,   2.136e-3
1.530,   2.260e-3
1.532,   2.347e-3
1.534,   2.427e-3
1.536,   2.499e-3
1.538,   2.585e-3
1.540,   2.667e-3
1.542,   2.758e-3
1.544,   2.852e-3
1.546,   2.958e-3
1.548,   3.035e-3
1.550,   3.141e-3
1.552,   3.245e-3
1.554,   3.328e-3
1.556,   3.411e-3
1.558,   3.519e-3
1.560,   3.692e-3
1.562,   3.768e-3
1.564,   3.853e-3
1.566,   4.050e-3
1.568,   4.151e-3
1.570,   4.239e-3
1.572,   4.404e-3
1.574,   4.569e-3
1.576,   4.647e-3
1.578,   4.746e-3
1.580,   4.834e-3
1.582,   4.958e-3
1.584,   5.079e-3
1.586,   5.181e-3
1.588,   5.299e-3
1.590,   5.648e-3
1.592,   5.698e-3
1.594,   5.864e-3
1.596,   5.963e-3
1.598,   6.081e-3
1.600,   6.131e-3
1.602,   6.410e-3
1.604,   6.491e-3
1.606,   6.564e-3
1.608,   6.619e-3
1.610,   6.827e-3
1.612,   6.900e-3
1.614,   6.986e-3
1.616,   7.162e-3
1.618,   7.235e-3
1.620,   7.315e-3
1.622,   7.472e-3
1.624,   7.619e-3
1.626,   7.674e-3
1.628,   7.847e-3
1.630,   7.851e-3
1.632,   8.017e-3
1.634,   8.151e-3
1.636,   8.180e-3
1.638,   8.398e-3
1.640,   8.643e-3
1.642,   8.847e-3
1.644,   8.848e-3
1.646,   8.882e-3
1.648,   8.946e-3
1.650,   9.117e-3
1.652,   9.212e-3
1.654,   9.296e-3
1.656,   9.358e-3
1.658,   9.404e-3
1.660,   9.541e-3
1.662,   9.517e-3
1.664,   9.544e-3
1.666,   9.569e-3
1.668,   9.683e-3
1.670,   9.759e-3
1.672,   9.810e-3
1.674,   1.007e-2
1.676,   1.007e-2
1.678,   1.007e-2
1.680,   1.007e-2
1.682,   1.007e-2