Folder: DASH/Experimental Records, Raw Data, and Supplementary Notes and Figures/batch2/final400 (part 2)

File: B2_BEST_400#17_High_Quality-250mV.txt
Jan. 14, 2023   15:34:57
Linear Sweep Voltammetry
File: d:\current work\al_oer\electrochemical test data\batch 2\400\B2_BEST_400#17_High_Quality-250mV.txt
Data Source:  Experiment
Instrument Model:  CHI660E
Header:
Note:

Init E (V) = 1.099

Final E (V) = 1.698

Scan Rate (V/s) = 0.010
Sample Interval (V) = 0.001
Quiet Time (sec) = 2
Sensitivity (A/V) = 0.001
Comp R (ohm) = 6.2

Results:

Channel 1:
Ep = 1.335V
ip = 1.001e-2A
Ah = 5.841e-2C

Potential/V, Current/A
1.099,   1.151e-4
1.101,   1.059e-4
1.103,   9.513e-5
1.105,   8.658e-5
1.107,   7.984e-5
1.109,   7.417e-5
1.111,   6.953e-5
1.113,   6.566e-5
1.115,   6.227e-5
1.117,   5.954e-5
1.119,   5.707e-5
1.121,   5.496e-5
1.123,   5.311e-5
1.125,   5.148e-5
1.127,   4.991e-5
1.129,   4.865e-5
1.131,   4.747e-5
1.133,   4.641e-5
1.135,   4.546e-5
1.137,   4.451e-5
1.139,   4.379e-5
1.141,   4.314e-5
1.143,   4.251e-5
1.145,   4.198e-5
1.147,   4.144e-5
1.149,   4.097e-5
1.151,   4.057e-5
1.153,   4.017e-5
1.155,   3.979e-5
1.157,   3.954e-5
1.159,   3.922e-5
1.161,   3.898e-5
1.163,   3.870e-5
1.165,   3.849e-5
1.167,   3.831e-5
1.169,   3.809e-5
1.171,   3.797e-5
1.173,   3.793e-5
1.175,   3.774e-5
1.177,   3.762e-5
1.179,   3.752e-5
1.181,   3.748e-5
1.183,   3.745e-5
1.185,   3.733e-5
1.187,   3.726e-5
1.189,   3.724e-5
1.191,   3.716e-5
1.193,   3.712e-5
1.195,   3.711e-5
1.197,   3.713e-5
1.199,   3.715e-5
1.201,   3.710e-5
1.203,   3.707e-5
1.205,   3.710e-5
1.207,   3.711e-5
1.209,   3.714e-5
1.211,   3.714e-5
1.213,   3.716e-5
1.215,   3.722e-5
1.217,   3.723e-5
1.219,   3.724e-5
1.221,   3.731e-5
1.223,   3.737e-5
1.225,   3.735e-5
1.227,   3.734e-5
1.229,   3.746e-5
1.231,   3.748e-5
1.233,   3.750e-5
1.235,   3.763e-5
1.237,   3.767e-5
1.239,   3.772e-5
1.241,   3.771e-5
1.243,   3.776e-5
1.245,   3.787e-5
1.247,   3.792e-5
1.249,   3.790e-5
1.251,   3.794e-5
1.253,   3.811e-5
1.255,   3.817e-5
1.257,   3.818e-5
1.259,   3.820e-5
1.261,   3.840e-5
1.263,   3.837e-5
1.265,   3.842e-5
1.267,   3.849e-5
1.269,   3.859e-5
1.271,   3.866e-5
1.273,   3.869e-5
1.275,   3.870e-5
1.277,   3.884e-5
1.279,   3.891e-5
1.281,   3.892e-5
1.283,   3.905e-5
1.285,   3.911e-5
1.287,   3.925e-5
1.289,   3.924e-5
1.291,   3.932e-5
1.293,   3.948e-5
1.295,   3.954e-5
1.297,   3.958e-5
1.299,   3.973e-5
1.301,   3.984e-5
1.303,   3.986e-5
1.305,   3.992e-5
1.307,   3.999e-5
1.309,   4.018e-5
1.311,   4.029e-5
1.313,   4.044e-5
1.315,   4.056e-5
1.317,   4.075e-5
1.319,   4.080e-5
1.321,   4.095e-5
1.323,   4.107e-5
1.325,   4.134e-5
1.327,   4.142e-5
1.329,   4.159e-5
1.331,   4.183e-5
1.333,   4.202e-5
1.335,   4.219e-5
1.337,   4.240e-5
1.339,   4.257e-5
1.341,   4.299e-5
1.343,   4.315e-5
1.345,   4.346e-5
1.347,   4.374e-5
1.349,   4.416e-5
1.351,   4.456e-5
1.353,   4.498e-5
1.355,   4.534e-5
1.357,   4.580e-5
1.359,   4.635e-5
1.361,   4.692e-5
1.363,   4.760e-5
1.365,   4.833e-5
1.367,   4.912e-5
1.369,   4.998e-5
1.371,   5.095e-5
1.373,   5.205e-5
1.375,   5.324e-5
1.377,   5.453e-5
1.379,   5.604e-5
1.381,   5.766e-5
1.383,   5.942e-5
1.385,   6.151e-5
1.387,   6.380e-5
1.389,   6.648e-5
1.391,   6.928e-5
1.393,   7.233e-5
1.395,   7.600e-5
1.397,   8.008e-5
1.399,   8.455e-5
1.401,   8.945e-5
1.403,   9.488e-5
1.405,   1.011e-4
1.407,   1.079e-4
1.409,   1.155e-4
1.411,   1.240e-4
1.413,   1.333e-4
1.415,   1.436e-4
1.417,   1.551e-4
1.419,   1.677e-4
1.421,   1.816e-4
1.423,   1.967e-4
1.425,   2.132e-4
1.427,   2.316e-4
1.429,   2.516e-4
1.431,   2.735e-4
1.433,   2.974e-4
1.435,   3.234e-4
1.437,   3.518e-4
1.439,   3.824e-4
1.441,   4.159e-4
1.443,   4.525e-4
1.445,   4.920e-4
1.447,   5.343e-4
1.449,   5.805e-4
1.451,   6.301e-4
1.453,   6.836e-4
1.455,   7.409e-4
1.457,   8.026e-4
1.459,   8.687e-4
1.461,   9.404e-4
1.463,   1.017e-3
1.465,   1.099e-3
1.467,   1.186e-3
1.469,   1.280e-3
1.471,   1.379e-3
1.473,   1.485e-3
1.475,   1.597e-3
1.477,   1.717e-3
1.479,   1.846e-3
1.481,   1.978e-3
1.483,   2.120e-3
1.485,   2.269e-3
1.487,   2.424e-3
1.489,   2.588e-3
1.491,   2.760e-3
1.493,   2.941e-3
1.495,   3.128e-3
1.497,   3.326e-3
1.499,   3.525e-3
1.501,   3.735e-3
1.503,   3.962e-3
1.505,   4.189e-3
1.507,   4.416e-3
1.509,   4.644e-3
1.511,   4.878e-3
1.513,   5.119e-3
1.515,   5.380e-3
1.517,   5.641e-3
1.519,   5.885e-3
1.521,   6.109e-3
1.523,   6.408e-3
1.525,   6.672e-3
1.527,   6.933e-3
1.529,   7.251e-3
1.531,   9.322e-3
1.533,   1.006e-2
1.535,   1.006e-2
1.537,   1.006e-2
1.539,   1.006e-2
1.541,   1.006e-2
1.543,   1.006e-2
1.545,   1.006e-2
1.547,   1.006e-2
1.549,   1.006e-2
1.551,   1.006e-2
1.553,   1.006e-2
1.555,   1.006e-2
1.557,   1.006e-2
1.559,   1.006e-2
1.561,   1.006e-2
1.563,   1.006e-2
1.565,   1.006e-2
1.567,   1.006e-2
1.569,   1.006e-2
1.571,   1.006e-2
1.573,   1.006e-2
1.575,   1.006e-2
1.577,   1.006e-2
1.579,   1.006e-2
1.581,   1.006e-2
1.583,   1.006e-2
1.585,   1.006e-2
1.587,   1.006e-2
1.589,   1.006e-2
1.591,   1.006e-2
1.593,   1.006e-2
1.595,   1.006e-2
1.597,   1.006e-2
1.599,   1.006e-2
1.601,   1.006e-2
1.603,   1.006e-2
1.605,   1.006e-2
1.607,   1.006e-2
1.609,   1.006e-2
1.611,   1.006e-2
1.613,   1.006e-2
1.615,   1.006e-2
1.617,   1.006e-2
1.619,   1.006e-2
1.621,   1.006e-2
1.623,   1.006e-2
1.625,   1.006e-2
1.627,   1.006e-2
1.629,   1.006e-2
1.631,   1.006e-2
1.633,   1.006e-2
1.635,   1.006e-2
1.637,   1.006e-2
1.639,   1.006e-2
1.641,   1.006e-2
1.643,   1.006e-2
1.645,   1.006e-2
1.647,   1.006e-2
1.649,   1.006e-2
1.651,   1.006e-2
1.653,   1.006e-2
1.655,   1.006e-2
1.657,   1.006e-2
1.659,   1.006e-2
1.661,   1.006e-2
1.663,   1.006e-2
1.665,   1.006e-2
1.667,   1.006e-2
1.669,   1.006e-2
1.671,   1.006e-2
1.673,   1.006e-2
1.675,   1.006e-2
1.677,   1.006e-2
1.679,   1.006e-2
1.681,   1.006e-2
1.683,   1.006e-2
1.685,   1.006e-2
1.687,   1.006e-2
1.689,   1.006e-2
1.691,   1.006e-2
1.693,   1.006e-2
1.695,   1.006e-2
1.697,   1.006e-2
1.698,   1.006e-2

File: B2_BEST_400#19_Full-241mV.txt
Jan. 18, 2023   15:05:33
Linear Sweep Voltammetry
File: d:\current work\al_oer\electrochemical test data\batch 2\400\B2_BEST_400#19_Full-241mV.txt
Data Source:  Experiment
Instrument Model:  CHI660E
Header:
Note:

Init E (V) = 1.099

Final E (V) = 1.532

Scan Rate (V/s) = 0.010
Sample Interval (V) = 0.001
Quiet Time (sec) = 2
Sensitivity (A/V) = 0.001
Comp R (ohm) = 5.6

Results:

Channel 1:

Potential/V, Current/A
1.099,   1.061e-4
1.101,   1.149e-4
1.103,   1.059e-4
1.105,   9.890e-5
1.107,   9.333e-5
1.109,   8.879e-5
1.111,   8.518e-5
1.113,   8.209e-5
1.115,   7.941e-5
1.117,   7.762e-5
1.119,   7.594e-5
1.121,   7.408e-5
1.123,   7.270e-5
1.125,   7.198e-5
1.127,   7.065e-5
1.129,   6.958e-5
1.131,   6.882e-5
1.133,   6.826e-5
1.135,   6.751e-5
1.137,   6.703e-5
1.139,   6.646e-5
1.141,   6.613e-5
1.143,   6.578e-5
1.145,   6.545e-5
1.147,   6.493e-5
1.149,   6.490e-5
1.151,   6.476e-5
1.153,   6.427e-5
1.155,   6.403e-5
1.157,   6.425e-5
1.159,   6.401e-5
1.161,   6.370e-5
1.163,   6.375e-5
1.165,   6.378e-5
1.167,   6.349e-5
1.169,   6.355e-5
1.171,   6.361e-5
1.173,   6.350e-5
1.175,   6.356e-5
1.177,   6.355e-5
1.179,   6.337e-5
1.181,   6.365e-5
1.183,   6.374e-5
1.185,   6.350e-5
1.187,   6.356e-5
1.189,   6.408e-5
1.191,   6.388e-5
1.193,   6.381e-5
1.195,   6.404e-5
1.197,   6.441e-5
1.199,   6.423e-5
1.201,   6.430e-5
1.203,   6.438e-5
1.205,   6.460e-5
1.207,   6.481e-5
1.209,   6.496e-5
1.211,   6.463e-5
1.213,   6.498e-5
1.215,   6.537e-5
1.217,   6.527e-5
1.219,   6.505e-5
1.221,   6.563e-5
1.223,   6.578e-5
1.225,   6.547e-5
1.227,   6.579e-5
1.229,   6.625e-5
1.231,   6.613e-5
1.233,   6.607e-5
1.235,   6.639e-5
1.237,   6.653e-5
1.239,   6.653e-5
1.241,   6.659e-5
1.243,   6.662e-5
1.245,   6.675e-5
1.247,   6.722e-5
1.249,   6.695e-5
1.251,   6.687e-5
1.253,   6.727e-5
1.255,   6.735e-5
1.257,   6.712e-5
1.259,   6.753e-5
1.261,   6.772e-5
1.263,   6.763e-5
1.265,   6.775e-5
1.267,   6.770e-5
1.269,   6.788e-5
1.271,   6.810e-5
1.273,   6.825e-5
1.275,   6.791e-5
1.277,   6.838e-5
1.279,   6.852e-5
1.281,   6.815e-5
1.283,   6.827e-5
1.285,   6.872e-5
1.287,   6.874e-5
1.289,   6.857e-5
1.291,   6.889e-5
1.293,   6.905e-5
1.295,   6.892e-5
1.297,   6.920e-5
1.299,   6.920e-5
1.301,   6.942e-5
1.303,   6.958e-5
1.305,   6.961e-5
1.307,   6.944e-5
1.309,   6.997e-5
1.311,   7.014e-5
1.313,   6.972e-5
1.315,   6.998e-5
1.317,   7.048e-5
1.319,   7.049e-5
1.321,   7.034e-5
1.323,   7.066e-5
1.325,   7.097e-5
1.327,   7.110e-5
1.329,   7.119e-5
1.331,   7.140e-5
1.333,   7.161e-5
1.335,   7.195e-5
1.337,   7.207e-5
1.339,   7.202e-5
1.341,   7.259e-5
1.343,   7.292e-5
1.345,   7.295e-5
1.347,   7.338e-5
1.349,   7.400e-5
1.351,   7.421e-5
1.353,   7.468e-5
1.355,   7.514e-5
1.357,   7.575e-5
1.359,   7.637e-5
1.361,   7.695e-5
1.363,   7.745e-5
1.365,   7.831e-5
1.367,   7.928e-5
1.369,   8.014e-5
1.371,   8.074e-5
1.373,   8.233e-5
1.375,   8.361e-5
1.377,   8.471e-5
1.379,   8.619e-5
1.381,   8.836e-5
1.383,   8.994e-5
1.385,   9.203e-5
1.387,   9.442e-5
1.389,   9.721e-5
1.391,   1.000e-4
1.393,   1.033e-4
1.395,   1.070e-4
1.397,   1.115e-4
1.399,   1.163e-4
1.401,   1.215e-4
1.403,   1.271e-4
1.405,   1.343e-4
1.407,   1.415e-4
1.409,   1.496e-4
1.411,   1.591e-4
1.413,   1.698e-4
1.415,   1.811e-4
1.417,   1.942e-4
1.419,   2.083e-4
1.421,   2.243e-4
1.423,   2.425e-4
1.425,   2.621e-4
1.427,   2.848e-4
1.429,   3.089e-4
1.431,   3.363e-4
1.433,   3.657e-4
1.435,   3.980e-4
1.437,   4.347e-4
1.439,   4.743e-4
1.441,   5.181e-4
1.443,   5.659e-4
1.445,   6.191e-4
1.447,   6.760e-4
1.449,   7.387e-4
1.451,   8.063e-4
1.453,   8.813e-4
1.455,   9.618e-4
1.457,   1.049e-3
1.459,   1.142e-3
1.461,   1.244e-3
1.463,   1.356e-3
1.465,   1.474e-3
1.467,   1.600e-3
1.469,   1.740e-3
1.471,   1.883e-3
1.473,   2.038e-3
1.475,   2.232e-3
1.477,   2.407e-3
1.479,   2.593e-3
1.481,   2.799e-3
1.483,   3.010e-3
1.485,   3.238e-3
1.487,   3.466e-3
1.489,   3.735e-3
1.491,   4.014e-3
1.493,   4.301e-3
1.495,   4.579e-3
1.497,   4.870e-3
1.499,   5.184e-3
1.501,   5.497e-3
1.503,   5.840e-3
1.505,   6.181e-3
1.507,   6.519e-3
1.509,   6.903e-3
1.511,   7.320e-3
1.513,   7.768e-3
1.515,   8.121e-3
1.517,   8.577e-3
1.519,   9.065e-3
1.521,   9.779e-3
1.523,   1.007e-2
1.525,   1.007e-2
1.527,   1.007e-2
1.529,   1.007e-2
1.531,   1.007e-2
1.532,   1.007e-2

File: B2_VARIANCE_400#1_Full-262mV.txt
Jan. 13, 2023   14:45:23
Linear Sweep Voltammetry
File: d:\current work\al_oer\electrochemical test data\batch 2\400\B2_VARIANCE_400#1_Full-262mV.txt
Data Source:  Experiment
Instrument Model:  CHI660E
Header:
Note:

Init E (V) = 1.099

Final E (V) = 1.580

Scan Rate (V/s) = 0.010
Sample Interval (V) = 0.001
Quiet Time (sec) = 2
Sensitivity (A/V) = 0.001
Comp R (ohm) = 6.0

Results:

Channel 1:

Potential/V, Current/A
1.099,   2.022e-4
1.101,   1.775e-4
1.103,   1.553e-4
1.105,   1.378e-4
1.107,   1.241e-4
1.109,   1.129e-4
1.111,   1.037e-4
1.113,   9.594e-5
1.115,   8.948e-5
1.117,   8.406e-5
1.119,   7.944e-5
1.121,   7.533e-5
1.123,   7.161e-5
1.125,   6.864e-5
1.127,   6.597e-5
1.129,   6.357e-5
1.131,   6.132e-5
1.133,   5.952e-5
1.135,   5.787e-5
1.137,   5.631e-5
1.139,   5.498e-5
1.141,   5.379e-5
1.143,   5.268e-5
1.145,   5.166e-5
1.147,   5.074e-5
1.149,   4.990e-5
1.151,   4.916e-5
1.153,   4.849e-5
1.155,   4.783e-5
1.157,   4.732e-5
1.159,   4.689e-5
1.161,   4.633e-5
1.163,   4.589e-5
1.165,   4.561e-5
1.167,   4.514e-5
1.169,   4.479e-5
1.171,   4.453e-5
1.173,   4.425e-5
1.175,   4.397e-5
1.177,   4.376e-5
1.179,   4.350e-5
1.181,   4.333e-5
1.183,   4.318e-5
1.185,   4.298e-5
1.187,   4.283e-5
1.189,   4.275e-5
1.191,   4.261e-5
1.193,   4.251e-5
1.195,   4.243e-5
1.197,   4.243e-5
1.199,   4.235e-5
1.201,   4.221e-5
1.203,   4.216e-5
1.205,   4.216e-5
1.207,   4.214e-5
1.209,   4.211e-5
1.211,   4.202e-5
1.213,   4.206e-5
1.215,   4.206e-5
1.217,   4.202e-5
1.219,   4.204e-5
1.221,   4.198e-5
1.223,   4.205e-5
1.225,   4.200e-5
1.227,   4.200e-5
1.229,   4.205e-5
1.231,   4.208e-5
1.233,   4.201e-5
1.235,   4.208e-5
1.237,   4.208e-5
1.239,   4.209e-5
1.241,   4.209e-5
1.243,   4.209e-5
1.245,   4.218e-5
1.247,   4.219e-5
1.249,   4.219e-5
1.251,   4.214e-5
1.253,   4.220e-5
1.255,   4.223e-5
1.257,   4.224e-5
1.259,   4.224e-5
1.261,   4.231e-5
1.263,   4.232e-5
1.265,   4.226e-5
1.267,   4.231e-5
1.269,   4.239e-5
1.271,   4.238e-5
1.273,   4.249e-5
1.275,   4.247e-5
1.277,   4.249e-5
1.279,   4.253e-5
1.281,   4.251e-5
1.283,   4.251e-5
1.285,   4.253e-5
1.287,   4.262e-5
1.289,   4.261e-5
1.291,   4.258e-5
1.293,   4.267e-5
1.295,   4.272e-5
1.297,   4.276e-5
1.299,   4.281e-5
1.301,   4.289e-5
1.303,   4.292e-5
1.305,   4.290e-5
1.307,   4.287e-5
1.309,   4.302e-5
1.311,   4.310e-5
1.313,   4.312e-5
1.315,   4.320e-5
1.317,   4.329e-5
1.319,   4.337e-5
1.321,   4.343e-5
1.323,   4.342e-5
1.325,   4.369e-5
1.327,   4.374e-5
1.329,   4.378e-5
1.331,   4.386e-5
1.333,   4.399e-5
1.335,   4.414e-5
1.337,   4.426e-5
1.339,   4.437e-5
1.341,   4.447e-5
1.343,   4.470e-5
1.345,   4.487e-5
1.347,   4.506e-5
1.349,   4.532e-5
1.351,   4.563e-5
1.353,   4.587e-5
1.355,   4.617e-5
1.357,   4.656e-5
1.359,   4.694e-5
1.361,   4.734e-5
1.363,   4.787e-5
1.365,   4.841e-5
1.367,   4.901e-5
1.369,   4.974e-5
1.371,   5.046e-5
1.373,   5.140e-5
1.375,   5.238e-5
1.377,   5.356e-5
1.379,   5.478e-5
1.381,   5.623e-5
1.383,   5.781e-5
1.385,   5.968e-5
1.387,   6.179e-5
1.389,   6.418e-5
1.391,   6.670e-5
1.393,   6.966e-5
1.395,   7.307e-5
1.397,   7.696e-5
1.399,   8.112e-5
1.401,   8.562e-5
1.403,   9.081e-5
1.405,   9.648e-5
1.407,   1.028e-4
1.409,   1.098e-4
1.411,   1.175e-4
1.413,   1.260e-4
1.415,   1.354e-4
1.417,   1.455e-4
1.419,   1.567e-4
1.421,   1.692e-4
1.423,   1.825e-4
1.425,   1.968e-4
1.427,   2.125e-4
1.429,   2.294e-4
1.431,   2.479e-4
1.433,   2.677e-4
1.435,   2.891e-4
1.437,   3.119e-4
1.439,   3.366e-4
1.441,   3.629e-4
1.443,   3.912e-4
1.445,   4.218e-4
1.447,   4.544e-4
1.449,   4.890e-4
1.451,   5.263e-4
1.453,   5.667e-4
1.455,   6.081e-4
1.457,   6.523e-4
1.459,   6.983e-4
1.461,   7.490e-4
1.463,   8.011e-4
1.465,   8.556e-4
1.467,   9.121e-4
1.469,   9.720e-4
1.471,   1.036e-3
1.473,   1.102e-3
1.475,   1.173e-3
1.477,   1.245e-3
1.479,   1.321e-3
1.481,   1.399e-3
1.483,   1.484e-3
1.485,   1.570e-3
1.487,   1.662e-3
1.489,   1.757e-3
1.491,   1.852e-3
1.493,   1.957e-3
1.495,   2.060e-3
1.497,   2.168e-3
1.499,   2.275e-3
1.501,   2.389e-3
1.503,   2.508e-3
1.505,   2.630e-3
1.507,   2.756e-3
1.509,   2.885e-3
1.511,   3.019e-3
1.513,   3.159e-3
1.515,   3.296e-3
1.517,   3.440e-3
1.519,   3.586e-3
1.521,   3.741e-3
1.523,   3.901e-3
1.525,   4.065e-3
1.527,   4.233e-3
1.529,   4.405e-3
1.531,   4.582e-3
1.533,   4.760e-3
1.535,   4.948e-3
1.537,   5.136e-3
1.539,   5.334e-3
1.541,   5.534e-3
1.543,   5.736e-3
1.545,   5.939e-3
1.547,   6.154e-3
1.549,   6.374e-3
1.551,   6.598e-3
1.553,   6.827e-3
1.555,   7.062e-3
1.557,   7.284e-3
1.559,   7.531e-3
1.561,   7.775e-3
1.563,   8.037e-3
1.565,   8.302e-3
1.567,   8.578e-3
1.569,   8.833e-3
1.571,   9.244e-3
1.573,   9.528e-3
1.575,   9.778e-3
1.577,   1.003e-2
1.579,   1.006e-2
1.580,   1.006e-2

File: B2_VARIANCE_400#2_High_Quality-205mV.txt
Jan. 14, 2023   13:42:28
Linear Sweep Voltammetry
File: d:\current work\al_oer\electrochemical test data\batch 2\400\B2_VARIANCE_400#2_High_Quality-205mV.txt
Data Source:  Experiment
Instrument Model:  CHI660E
Header:
Note:

Init E (V) = 1.099

Final E (V) = 1.798

Scan Rate (V/s) = 0.010
Sample Interval (V) = 0.001
Quiet Time (sec) = 2
Sensitivity (A/V) = 0.001
Comp R (ohm) = 5.8

Results:

Channel 1:
Ep = 1.274V
ip = 9.988e-3A
Ah = 4.472e-2C

Potential/V, Current/A
1.099,   2.297e-4
1.102,   1.837e-4
1.105,   1.472e-4
1.108,   1.235e-4
1.111,   1.074e-4
1.114,   9.612e-5
1.117,   8.784e-5
1.120,   8.187e-5
1.123,   7.689e-5
1.126,   7.326e-5
1.129,   7.037e-5
1.132,   6.817e-5
1.135,   6.638e-5
1.138,   6.489e-5
1.141,   6.381e-5
1.144,   6.268e-5
1.147,   6.192e-5
1.150,   6.127e-5
1.153,   6.081e-5
1.156,   6.032e-5
1.159,   6.009e-5
1.162,   5.980e-5
1.165,   5.967e-5
1.168,   5.937e-5
1.171,   5.935e-5
1.174,   5.912e-5
1.177,   5.912e-5
1.180,   5.910e-5
1.183,   5.915e-5
1.186,   5.919e-5
1.189,   5.911e-5
1.192,   5.916e-5
1.195,   5.909e-5
1.198,   5.927e-5
1.201,   5.937e-5
1.204,   5.955e-5
1.207,   5.966e-5
1.210,   6.001e-5
1.213,   5.995e-5
1.216,   6.009e-5
1.219,   6.012e-5
1.222,   6.024e-5
1.225,   6.049e-5
1.228,   6.059e-5
1.231,   6.076e-5
1.234,   6.091e-5
1.237,   6.108e-5
1.240,   6.106e-5
1.243,   6.108e-5
1.246,   6.119e-5
1.249,   6.140e-5
1.252,   6.158e-5
1.255,   6.194e-5
1.258,   6.197e-5
1.261,   6.217e-5
1.264,   6.224e-5
1.267,   6.232e-5
1.270,   6.241e-5
1.273,   6.269e-5
1.276,   6.280e-5
1.279,   6.319e-5
1.282,   6.337e-5
1.285,   6.345e-5
1.288,   6.345e-5
1.291,   6.356e-5
1.294,   6.375e-5
1.297,   6.399e-5
1.300,   6.429e-5
1.303,   6.462e-5
1.306,   6.490e-5
1.309,   6.510e-5
1.312,   6.546e-5
1.315,   6.546e-5
1.318,   6.586e-5
1.321,   6.613e-5
1.324,   6.688e-5
1.327,   6.709e-5
1.330,   6.753e-5
1.333,   6.812e-5
1.336,   6.856e-5
1.339,   6.904e-5
1.342,   6.974e-5
1.345,   7.056e-5
1.348,   7.164e-5
1.351,   7.283e-5
1.354,   7.417e-5
1.357,   7.570e-5
1.360,   7.749e-5
1.363,   7.976e-5
1.366,   8.229e-5
1.369,   8.585e-5
1.372,   9.009e-5
1.375,   9.561e-5
1.378,   1.024e-4
1.381,   1.108e-4
1.384,   1.214e-4
1.387,   1.348e-4
1.390,   1.518e-4
1.393,   1.731e-4
1.396,   1.998e-4
1.399,   2.331e-4
1.402,   2.742e-4
1.405,   3.243e-4
1.408,   3.856e-4
1.411,   4.601e-4
1.414,   5.498e-4
1.417,   6.563e-4
1.420,   7.831e-4
1.423,   9.324e-4
1.426,   1.107e-3
1.429,   1.311e-3
1.432,   1.549e-3
1.435,   1.827e-3
1.438,   2.151e-3
1.441,   2.519e-3
1.444,   2.945e-3
1.447,   3.425e-3
1.450,   3.982e-3
1.453,   4.621e-3
1.456,   5.332e-3
1.459,   6.150e-3
1.462,   7.038e-3
1.465,   8.029e-3
1.468,   9.050e-3
1.471,   1.004e-2
1.474,   1.006e-2
1.477,   1.006e-2
1.480,   1.006e-2
1.483,   1.006e-2
1.486,   1.006e-2
1.489,   1.006e-2
1.492,   1.006e-2
1.495,   1.006e-2
1.498,   1.006e-2
1.501,   1.006e-2
1.504,   1.006e-2
1.507,   1.006e-2
1.510,   1.006e-2
1.513,   1.006e-2
1.516,   1.006e-2
1.519,   1.006e-2
1.522,   1.006e-2
1.525,   1.006e-2
1.528,   1.006e-2
1.531,   1.006e-2
1.534,   1.006e-2
1.537,   1.006e-2
1.540,   1.006e-2
1.543,   1.006e-2
1.546,   1.006e-2
1.549,   1.006e-2
1.552,   1.006e-2
1.555,   1.006e-2
1.558,   1.006e-2
1.561,   1.006e-2
1.564,   1.006e-2
1.567,   1.006e-2
1.570,   1.006e-2
1.573,   1.006e-2
1.576,   1.006e-2
1.579,   1.006e-2
1.582,   1.006e-2
1.585,   1.006e-2
1.588,   1.006e-2
1.591,   1.006e-2
1.594,   1.006e-2
1.597,   1.006e-2
1.600,   1.006e-2
1.603,   1.006e-2
1.606,   1.006e-2
1.609,   1.006e-2
1.612,   1.006e-2
1.615,   1.006e-2
1.618,   1.006e-2
1.621,   1.006e-2
1.624,   1.006e-2
1.627,   1.006e-2
1.630,   1.006e-2
1.633,   1.006e-2
1.636,   1.006e-2
1.639,   1.006e-2
1.642,   1.006e-2
1.645,   1.006e-2
1.648,   1.006e-2
1.651,   1.006e-2
1.654,   1.006e-2
1.657,   1.006e-2
1.660,   1.006e-2
1.663,   1.006e-2
1.666,   1.006e-2
1.669,   1.006e-2
1.672,   1.006e-2
1.675,   1.006e-2
1.678,   1.006e-2
1.681,   1.006e-2
1.684,   1.006e-2
1.687,   1.006e-2
1.690,   1.006e-2
1.693,   1.006e-2
1.696,   1.006e-2
1.699,   1.006e-2
1.702,   1.006e-2
1.705,   1.006e-2
1.708,   1.006e-2
1.711,   1.006e-2
1.714,   1.006e-2
1.717,   1.006e-2
1.720,   1.006e-2
1.723,   1.006e-2
1.726,   1.006e-2
1.729,   1.006e-2
1.732,   1.006e-2
1.735,   1.006e-2
1.738,   1.006e-2
1.741,   1.006e-2
1.744,   1.006e-2
1.747,   1.006e-2
1.750,   1.006e-2
1.753,   1.006e-2
1.756,   1.006e-2
1.759,   1.006e-2
1.762,   1.006e-2
1.765,   1.006e-2
1.768,   1.006e-2
1.771,   1.006e-2
1.774,   1.006e-2
1.777,   1.006e-2
1.780,   1.006e-2
1.783,   1.006e-2
1.786,   1.006e-2
1.789,   1.006e-2
1.792,   1.006e-2
1.795,   1.006e-2
1.798,   1.006e-2

File: B2_VARIANCE_400#5_High_Quality-225mV.txt
Jan. 14, 2023   14:18:13
Linear Sweep Voltammetry
File: d:\current work\al_oer\electrochemical test data\batch 2\400\B2_VARIANCE_400#5_High_Quality-225mV.txt
Data Source:  Experiment
Instrument Model:  CHI660E
Header:
Note:

Init E (V) = 1.099

Final E (V) = 1.598

Scan Rate (V/s) = 0.010
Sample Interval (V) = 0.001
Quiet Time (sec) = 2
Sensitivity (A/V) = 0.001
Comp R (ohm) = 6.3

Results:

Channel 1:

Potential/V, Current/A
1.099,   2.438e-4
1.101,   2.048e-4
1.103,   1.732e-4
1.105,   1.493e-4
1.107,   1.316e-4
1.109,   1.180e-4
1.111,   1.071e-4
1.113,   9.893e-5
1.115,   9.202e-5
1.117,   8.675e-5
1.119,   8.199e-5
1.121,   7.813e-5
1.123,   7.463e-5
1.125,   7.186e-5
1.127,   6.943e-5
1.129,   6.728e-5
1.131,   6.551e-5
1.133,   6.404e-5
1.135,   6.256e-5
1.137,   6.135e-5
1.139,   6.031e-5
1.141,   5.938e-5
1.143,   5.868e-5
1.145,   5.801e-5
1.147,   5.739e-5
1.149,   5.680e-5
1.151,   5.645e-5
1.153,   5.593e-5
1.155,   5.551e-5
1.157,   5.518e-5
1.159,   5.519e-5
1.161,   5.497e-5
1.163,   5.475e-5
1.165,   5.463e-5
1.167,   5.467e-5
1.169,   5.439e-5
1.171,   5.438e-5
1.173,   5.434e-5
1.175,   5.434e-5
1.177,   5.445e-5
1.179,   5.434e-5
1.181,   5.443e-5
1.183,   5.452e-5
1.185,   5.465e-5
1.187,   5.465e-5
1.189,   5.473e-5
1.191,   5.484e-5
1.193,   5.498e-5
1.195,   5.504e-5
1.197,   5.539e-5
1.199,   5.550e-5
1.201,   5.550e-5
1.203,   5.567e-5
1.205,   5.582e-5
1.207,   5.597e-5
1.209,   5.612e-5
1.211,   5.621e-5
1.213,   5.642e-5
1.215,   5.657e-5
1.217,   5.665e-5
1.219,   5.691e-5
1.221,   5.708e-5
1.223,   5.732e-5
1.225,   5.749e-5
1.227,   5.753e-5
1.229,   5.795e-5
1.231,   5.802e-5
1.233,   5.821e-5
1.235,   5.849e-5
1.237,   5.853e-5
1.239,   5.858e-5
1.241,   5.868e-5
1.243,   5.877e-5
1.245,   5.910e-5
1.247,   5.920e-5
1.249,   5.922e-5
1.251,   5.932e-5
1.253,   5.958e-5
1.255,   5.989e-5
1.257,   5.999e-5
1.259,   5.997e-5
1.261,   6.027e-5
1.263,   6.047e-5
1.265,   6.070e-5
1.267,   6.092e-5
1.269,   6.095e-5
1.271,   6.160e-5
1.273,   6.182e-5
1.275,   6.171e-5
1.277,   6.179e-5
1.279,   6.198e-5
1.281,   6.215e-5
1.283,   6.233e-5
1.285,   6.271e-5
1.287,   6.296e-5
1.289,   6.311e-5
1.291,   6.342e-5
1.293,   6.371e-5
1.295,   6.392e-5
1.297,   6.415e-5
1.299,   6.448e-5
1.301,   6.481e-5
1.303,   6.519e-5
1.305,   6.539e-5
1.307,   6.580e-5
1.309,   6.647e-5
1.311,   6.682e-5
1.313,   6.713e-5
1.315,   6.748e-5
1.317,   6.789e-5
1.319,   6.832e-5
1.321,   6.876e-5
1.323,   6.921e-5
1.325,   7.007e-5
1.327,   7.054e-5
1.329,   7.099e-5
1.331,   7.161e-5
1.333,   7.230e-5
1.335,   7.304e-5
1.337,   7.388e-5
1.339,   7.450e-5
1.341,   7.548e-5
1.343,   7.650e-5
1.345,   7.741e-5
1.347,   7.842e-5
1.349,   7.956e-5
1.351,   8.080e-5
1.353,   8.215e-5
1.355,   8.356e-5
1.357,   8.521e-5
1.359,   8.681e-5
1.361,   8.911e-5
1.363,   9.094e-5
1.365,   9.316e-5
1.367,   9.559e-5
1.369,   9.870e-5
1.371,   1.019e-4
1.373,   1.058e-4
1.375,   1.101e-4
1.377,   1.148e-4
1.379,   1.203e-4
1.381,   1.266e-4
1.383,   1.336e-4
1.385,   1.417e-4
1.387,   1.505e-4
1.389,   1.609e-4
1.391,   1.724e-4
1.393,   1.854e-4
1.395,   2.004e-4
1.397,   2.167e-4
1.399,   2.350e-4
1.401,   2.556e-4
1.403,   2.780e-4
1.405,   3.029e-4
1.407,   3.305e-4
1.409,   3.598e-4
1.411,   3.922e-4
1.413,   4.275e-4
1.415,   4.652e-4
1.417,   5.057e-4
1.419,   5.493e-4
1.421,   5.959e-4
1.423,   6.452e-4
1.425,   6.977e-4
1.427,   7.539e-4
1.429,   8.121e-4
1.431,   8.795e-4
1.433,   9.540e-4
1.435,   1.021e-3
1.437,   1.100e-3
1.439,   1.177e-3
1.441,   1.262e-3
1.443,   1.345e-3
1.445,   1.435e-3
1.447,   1.530e-3
1.449,   1.625e-3
1.451,   1.725e-3
1.453,   1.828e-3
1.455,   1.933e-3
1.457,   2.041e-3
1.459,   2.151e-3
1.461,   2.267e-3
1.463,   2.386e-3
1.465,   2.506e-3
1.467,   2.618e-3
1.469,   2.742e-3
1.471,   2.875e-3
1.473,   2.996e-3
1.475,   3.121e-3
1.477,   3.248e-3
1.479,   3.379e-3
1.481,   3.517e-3
1.483,   3.672e-3
1.485,   3.824e-3
1.487,   3.968e-3
1.489,   4.121e-3
1.491,   4.263e-3
1.493,   4.397e-3
1.495,   4.545e-3
1.497,   4.662e-3
1.499,   4.798e-3
1.501,   4.935e-3
1.503,   5.037e-3
1.505,   5.158e-3
1.507,   5.287e-3
1.509,   5.416e-3
1.511,   5.518e-3
1.513,   5.621e-3
1.515,   5.735e-3
1.517,   5.859e-3
1.519,   5.959e-3
1.521,   6.055e-3
1.523,   6.153e-3
1.525,   6.265e-3
1.527,   6.424e-3
1.529,   6.505e-3
1.531,   6.597e-3
1.533,   6.675e-3
1.535,   6.773e-3
1.537,   6.839e-3
1.539,   6.919e-3
1.541,   7.010e-3
1.543,   7.105e-3
1.545,   7.179e-3
1.547,   7.249e-3
1.549,   7.334e-3
1.551,   7.416e-3
1.553,   7.496e-3
1.555,   7.571e-3
1.557,   7.623e-3
1.559,   7.685e-3
1.561,   7.752e-3
1.563,   7.827e-3
1.565,   7.859e-3
1.567,   7.946e-3
1.569,   7.959e-3
1.571,   8.058e-3
1.573,   8.101e-3
1.575,   8.182e-3
1.577,   8.275e-3
1.579,   8.407e-3
1.581,   8.443e-3
1.583,   8.493e-3
1.585,   8.532e-3
1.587,   8.576e-3
1.589,   8.661e-3
1.591,   8.680e-3
1.593,   8.712e-3
1.595,   8.732e-3
1.597,   8.764e-3
1.598,   8.747e-3