Folder: DASH/Experimental Records, Raw Data, and Supplementary Notes and Figures/batch2/final400

Note: README.md
# DASH
This is the online repository that stores code, data and supplementary figures of the research work: <Leveraging Data Mining, Active Learning, and Domain Adaptation in a Multi-Stage, Machine Learning-Driven Approach for the Efficient Discovery of Advanced Acidic Oxygen Evolution Electrocatalysts> by Rui Ding et. al. (https://arxiv.org/abs/2407.04877)
![Workflow Schematic](https://github.com/ruiding-uchicago/D.A.S.H./blob/main/Online%20Repository%20Figures/D.A.S.H.%20Workflow.jpg)
## Code Description

Our code is written and uploaded on GitHub in Jupyter notebook file format, which is already very easy to conduct and get results. Our code does not include providing a new python library, but users could track how we train machine learning models in Jupyter ipynb files. Also, we have provided all original dataset CSV files to drive the active learning flow. Additionally, we have detailed the python version and package environment used for this work, focusing on machine learning-related packages.

## Environment
This project was trained using Python version 3.9.12. Below is the list of machine learning-related packages and their versions used in this project on the local machine we used equipped with 2080 Ti GPU, users could install anaconda (https://www.anaconda.com/download) and using pip install to install the packages below for setting environment to run in the Jupyter notebook (https://docs.anaconda.com/ae-notebooks/user-guide/basic-tasks/apps/jupyter/index.html):

absl-py 1.2.0
ase 3.22.1
catboost 1.0.6
cython 0.29.28
dask 2022.2.1
deep-forest 0.1.7
gensim 4.1.2
h5py 3.6.0
keras 2.9.0
Keras-Preprocessing 1.1.2
keras-tcn 3.5.0
lightgbm 3.3.2
matplotlib 3.4.3
numpy 1.23.5
pandas 1.4.2
pytorch-lightning 2.0.1
pymatgen 2023.8.10
scikit-learn 1.0.2
scipy 1.8.0
scikit-opt  0.6.6
scikit-optimize 0.9.0
seaborn 0.11.2
tensorboard                  2.10.1
tensorboard-data-server      0.6.1
tensorboard-plugin-wit       1.8.1
tensorflow-estimator         2.10.0
tensorflow-gpu               2.10.0
tensorflow-io-gcs-filesystem 0.31.0
torch 2.0.0
torchvision 0.15.1
xgboost 1.6.2

File: B2_BEST_400#10_Full-251mV.txt
Jan. 18, 2023   14:04:53
Linear Sweep Voltammetry
File: d:\current work\al_oer\electrochemical test data\batch 2\400\B2_BEST_400#10_Full-251mV.txt
Data Source:  Experiment
Instrument Model:  CHI660E
Header:
Note:

Init E (V) = 1.098

Final E (V) = 1.670

Scan Rate (V/s) = 0.010
Sample Interval (V) = 0.001
Quiet Time (sec) = 2
Sensitivity (A/V) = 0.001
Comp R (ohm) = 4.9

Results:

Channel 1:

Potential/V, Current/A
1.098,   1.763e-4
1.100,   1.592e-4
1.102,   1.439e-4
1.104,   1.311e-4
1.106,   1.209e-4
1.108,   1.122e-4
1.110,   1.052e-4
1.112,   9.935e-5
1.114,   9.389e-5
1.116,   8.944e-5
1.118,   8.553e-5
1.120,   8.195e-5
1.122,   7.889e-5
1.124,   7.626e-5
1.126,   7.368e-5
1.128,   7.149e-5
1.130,   6.953e-5
1.132,   6.783e-5
1.134,   6.615e-5
1.136,   6.461e-5
1.138,   6.338e-5
1.140,   6.210e-5
1.142,   6.102e-5
1.144,   6.014e-5
1.146,   5.913e-5
1.148,   5.826e-5
1.150,   5.751e-5
1.152,   5.674e-5
1.154,   5.604e-5
1.156,   5.543e-5
1.158,   5.488e-5
1.160,   5.444e-5
1.162,   5.397e-5
1.164,   5.346e-5
1.166,   5.307e-5
1.168,   5.262e-5
1.170,   5.234e-5
1.172,   5.206e-5
1.174,   5.175e-5
1.176,   5.145e-5
1.178,   5.124e-5
1.180,   5.098e-5
1.182,   5.078e-5
1.184,   5.056e-5
1.186,   5.041e-5
1.188,   5.026e-5
1.190,   5.012e-5
1.192,   5.002e-5
1.194,   4.984e-5
1.196,   4.974e-5
1.198,   4.967e-5
1.200,   4.959e-5
1.202,   4.951e-5
1.204,   4.957e-5
1.206,   4.952e-5
1.208,   4.949e-5
1.210,   4.950e-5
1.212,   4.948e-5
1.214,   4.942e-5
1.216,   4.932e-5
1.218,   4.929e-5
1.220,   4.935e-5
1.222,   4.938e-5
1.224,   4.951e-5
1.226,   4.940e-5
1.228,   4.949e-5
1.230,   4.944e-5
1.232,   4.949e-5
1.234,   4.955e-5
1.236,   4.968e-5
1.238,   4.970e-5
1.240,   4.988e-5
1.242,   4.995e-5
1.244,   4.994e-5
1.246,   5.002e-5
1.248,   5.008e-5
1.250,   5.006e-5
1.252,   5.014e-5
1.254,   5.026e-5
1.256,   5.034e-5
1.258,   5.045e-5
1.260,   5.057e-5
1.262,   5.071e-5
1.264,   5.073e-5
1.266,   5.079e-5
1.268,   5.094e-5
1.270,   5.101e-5
1.272,   5.112e-5
1.274,   5.119e-5
1.276,   5.137e-5
1.278,   5.141e-5
1.280,   5.144e-5
1.282,   5.155e-5
1.284,   5.169e-5
1.286,   5.194e-5
1.288,   5.201e-5
1.290,   5.212e-5
1.292,   5.226e-5
1.294,   5.243e-5
1.296,   5.249e-5
1.298,   5.272e-5
1.300,   5.288e-5
1.302,   5.299e-5
1.304,   5.315e-5
1.306,   5.334e-5
1.308,   5.348e-5
1.310,   5.367e-5
1.312,   5.383e-5
1.314,   5.396e-5
1.316,   5.425e-5
1.318,   5.439e-5
1.320,   5.464e-5
1.322,   5.480e-5
1.324,   5.516e-5
1.326,   5.529e-5
1.328,   5.541e-5
1.330,   5.571e-5
1.332,   5.603e-5
1.334,   5.623e-5
1.336,   5.651e-5
1.338,   5.691e-5
1.340,   5.713e-5
1.342,   5.758e-5
1.344,   5.779e-5
1.346,   5.811e-5
1.348,   5.848e-5
1.350,   5.893e-5
1.352,   5.932e-5
1.354,   5.978e-5
1.356,   6.033e-5
1.358,   6.073e-5
1.360,   6.133e-5
1.362,   6.213e-5
1.364,   6.276e-5
1.366,   6.354e-5
1.368,   6.459e-5
1.370,   6.554e-5
1.372,   6.678e-5
1.374,   6.802e-5
1.376,   6.957e-5
1.378,   7.119e-5
1.380,   7.305e-5
1.382,   7.521e-5
1.384,   7.771e-5
1.386,   8.017e-5
1.388,   8.331e-5
1.390,   8.658e-5
1.392,   9.047e-5
1.394,   9.492e-5
1.396,   9.951e-5
1.398,   1.050e-4
1.400,   1.108e-4
1.402,   1.175e-4
1.404,   1.247e-4
1.406,   1.328e-4
1.408,   1.417e-4
1.410,   1.516e-4
1.412,   1.630e-4
1.414,   1.755e-4
1.416,   1.891e-4
1.418,   2.057e-4
1.420,   2.231e-4
1.422,   2.418e-4
1.424,   2.619e-4
1.426,   2.838e-4
1.428,   3.086e-4
1.430,   3.352e-4
1.432,   3.631e-4
1.434,   3.939e-4
1.436,   4.262e-4
1.438,   4.612e-4
1.440,   4.995e-4
1.442,   5.395e-4
1.444,   5.830e-4
1.446,   6.298e-4
1.448,   6.789e-4
1.450,   7.297e-4
1.452,   7.849e-4
1.454,   8.409e-4
1.456,   9.022e-4
1.458,   9.654e-4
1.460,   1.029e-3
1.462,   1.104e-3
1.464,   1.179e-3
1.466,   1.256e-3
1.468,   1.334e-3
1.470,   1.421e-3
1.472,   1.506e-3
1.474,   1.593e-3
1.476,   1.686e-3
1.478,   1.780e-3
1.480,   1.874e-3
1.482,   1.977e-3
1.484,   2.073e-3
1.486,   2.180e-3
1.488,   2.276e-3
1.490,   2.391e-3
1.492,   2.492e-3
1.494,   2.597e-3
1.496,   2.709e-3
1.498,   2.818e-3
1.500,   2.923e-3
1.502,   3.035e-3
1.504,   3.136e-3
1.506,   3.239e-3
1.508,   3.339e-3
1.510,   3.425e-3
1.512,   3.541e-3
1.514,   3.637e-3
1.516,   3.726e-3
1.518,   3.814e-3
1.520,   3.895e-3
1.522,   3.979e-3
1.524,   4.042e-3
1.526,   4.121e-3
1.528,   4.195e-3
1.530,   4.254e-3
1.532,   4.313e-3
1.534,   4.369e-3
1.536,   4.429e-3
1.538,   4.467e-3
1.540,   4.519e-3
1.542,   4.562e-3
1.544,   4.600e-3
1.546,   4.633e-3
1.548,   4.674e-3
1.550,   4.700e-3
1.552,   4.745e-3
1.554,   4.773e-3
1.556,   4.787e-3
1.558,   4.833e-3
1.560,   4.852e-3
1.562,   4.869e-3
1.564,   4.893e-3
1.566,   4.911e-3
1.568,   4.959e-3
1.570,   4.982e-3
1.572,   4.998e-3
1.574,   5.005e-3
1.576,   5.029e-3
1.578,   5.057e-3
1.580,   5.080e-3
1.582,   5.100e-3
1.584,   5.117e-3
1.586,   5.129e-3
1.588,   5.163e-3
1.590,   5.192e-3
1.592,   5.213e-3
1.594,   5.227e-3
1.596,   5.253e-3
1.598,   5.267e-3
1.600,   5.286e-3
1.602,   5.304e-3
1.604,   5.326e-3
1.606,   5.365e-3
1.608,   5.394e-3
1.610,   5.403e-3
1.612,   5.421e-3
1.614,   5.444e-3
1.616,   5.453e-3
1.618,   5.470e-3
1.620,   5.487e-3
1.622,   5.493e-3
1.624,   5.534e-3
1.626,   5.539e-3
1.628,   5.560e-3
1.630,   5.574e-3
1.632,   5.591e-3
1.634,   5.599e-3
1.636,   5.623e-3
1.638,   5.635e-3
1.640,   5.644e-3
1.642,   5.656e-3
1.644,   5.667e-3
1.646,   5.680e-3
1.648,   5.678e-3
1.650,   5.685e-3
1.652,   5.688e-3
1.654,   5.693e-3
1.656,   5.699e-3
1.658,   5.695e-3
1.660,   5.698e-3
1.662,   5.697e-3
1.664,   5.696e-3
1.666,   5.678e-3
1.668,   5.675e-3
1.670,   5.655e-3

File: B2_BEST_400#11_Full-270mV.txt
Jan. 18, 2023   14:15:32
Linear Sweep Voltammetry
File: d:\current work\al_oer\electrochemical test data\batch 2\400\B2_BEST_400#11_Full-270mV.txt
Data Source:  Experiment
Instrument Model:  CHI660E
Header:
Note:

Init E (V) = 1.098

Final E (V) = 1.590

Scan Rate (V/s) = 0.010
Sample Interval (V) = 0.001
Quiet Time (sec) = 2
Sensitivity (A/V) = 0.001
Comp R (ohm) = 5.1

Results:

Channel 1:

Potential/V, Current/A
1.098,   1.018e-4
1.100,   9.018e-5
1.102,   7.916e-5
1.104,   7.065e-5
1.106,   6.399e-5
1.108,   5.877e-5
1.110,   5.437e-5
1.112,   5.091e-5
1.114,   4.802e-5
1.116,   4.576e-5
1.118,   4.374e-5
1.120,   4.196e-5
1.122,   4.035e-5
1.124,   3.903e-5
1.126,   3.783e-5
1.128,   3.675e-5
1.130,   3.584e-5
1.132,   3.509e-5
1.134,   3.428e-5
1.136,   3.364e-5
1.138,   3.300e-5
1.140,   3.248e-5
1.142,   3.200e-5
1.144,   3.153e-5
1.146,   3.113e-5
1.148,   3.081e-5
1.150,   3.047e-5
1.152,   3.020e-5
1.154,   2.994e-5
1.156,   2.976e-5
1.158,   2.946e-5
1.160,   2.916e-5
1.162,   2.896e-5
1.164,   2.877e-5
1.166,   2.858e-5
1.168,   2.846e-5
1.170,   2.831e-5
1.172,   2.820e-5
1.174,   2.810e-5
1.176,   2.795e-5
1.178,   2.783e-5
1.180,   2.775e-5
1.182,   2.764e-5
1.184,   2.751e-5
1.186,   2.738e-5
1.188,   2.734e-5
1.190,   2.728e-5
1.192,   2.717e-5
1.194,   2.711e-5
1.196,   2.711e-5
1.198,   2.706e-5
1.200,   2.689e-5
1.202,   2.687e-5
1.204,   2.683e-5
1.206,   2.673e-5
1.208,   2.666e-5
1.210,   2.659e-5
1.212,   2.658e-5
1.214,   2.655e-5
1.216,   2.648e-5
1.218,   2.642e-5
1.220,   2.647e-5
1.222,   2.644e-5
1.224,   2.643e-5
1.226,   2.646e-5
1.228,   2.640e-5
1.230,   2.641e-5
1.232,   2.647e-5
1.234,   2.647e-5
1.236,   2.645e-5
1.238,   2.645e-5
1.240,   2.649e-5
1.242,   2.648e-5
1.244,   2.654e-5
1.246,   2.652e-5
1.248,   2.651e-5
1.250,   2.653e-5
1.252,   2.662e-5
1.254,   2.661e-5
1.256,   2.681e-5
1.258,   2.678e-5
1.260,   2.681e-5
1.262,   2.679e-5
1.264,   2.679e-5
1.266,   2.680e-5
1.268,   2.680e-5
1.270,   2.683e-5
1.272,   2.691e-5
1.274,   2.689e-5
1.276,   2.698e-5
1.278,   2.705e-5
1.280,   2.704e-5
1.282,   2.703e-5
1.284,   2.716e-5
1.286,   2.716e-5
1.288,   2.719e-5
1.290,   2.728e-5
1.292,   2.732e-5
1.294,   2.738e-5
1.296,   2.741e-5
1.298,   2.743e-5
1.300,   2.752e-5
1.302,   2.759e-5
1.304,   2.761e-5
1.306,   2.761e-5
1.308,   2.781e-5
1.310,   2.787e-5
1.312,   2.785e-5
1.314,   2.802e-5
1.316,   2.811e-5
1.318,   2.815e-5
1.320,   2.828e-5
1.322,   2.841e-5
1.324,   2.854e-5
1.326,   2.864e-5
1.328,   2.870e-5
1.330,   2.889e-5
1.332,   2.897e-5
1.334,   2.911e-5
1.336,   2.922e-5
1.338,   2.933e-5
1.340,   2.958e-5
1.342,   2.976e-5
1.344,   3.001e-5
1.346,   3.026e-5
1.348,   3.054e-5
1.350,   3.077e-5
1.352,   3.100e-5
1.354,   3.133e-5
1.356,   3.167e-5
1.358,   3.206e-5
1.360,   3.246e-5
1.362,   3.286e-5
1.364,   3.344e-5
1.366,   3.402e-5
1.368,   3.457e-5
1.370,   3.518e-5
1.372,   3.586e-5
1.374,   3.668e-5
1.376,   3.737e-5
1.378,   3.825e-5
1.380,   3.929e-5
1.382,   4.027e-5
1.384,   4.139e-5
1.386,   4.273e-5
1.388,   4.415e-5
1.390,   4.575e-5
1.392,   4.739e-5
1.394,   4.918e-5
1.396,   5.144e-5
1.398,   5.370e-5
1.400,   5.613e-5
1.402,   5.885e-5
1.404,   6.193e-5
1.406,   6.532e-5
1.408,   6.898e-5
1.410,   7.320e-5
1.412,   7.787e-5
1.414,   8.295e-5
1.416,   8.861e-5
1.418,   9.468e-5
1.420,   1.015e-4
1.422,   1.089e-4
1.424,   1.171e-4
1.426,   1.262e-4
1.428,   1.362e-4
1.430,   1.470e-4
1.432,   1.588e-4
1.434,   1.717e-4
1.436,   1.858e-4
1.438,   2.010e-4
1.440,   2.177e-4
1.442,   2.357e-4
1.444,   2.554e-4
1.446,   2.759e-4
1.448,   2.988e-4
1.450,   3.243e-4
1.452,   3.509e-4
1.454,   3.796e-4
1.456,   4.108e-4
1.458,   4.441e-4
1.460,   4.800e-4
1.462,   5.183e-4
1.464,   5.610e-4
1.466,   6.057e-4
1.468,   6.529e-4
1.470,   7.031e-4
1.472,   7.573e-4
1.474,   8.134e-4
1.476,   8.731e-4
1.478,   9.368e-4
1.480,   1.004e-3
1.482,   1.076e-3
1.484,   1.151e-3
1.486,   1.232e-3
1.488,   1.315e-3
1.490,   1.400e-3
1.492,   1.494e-3
1.494,   1.595e-3
1.496,   1.698e-3
1.498,   1.805e-3
1.500,   1.921e-3
1.502,   2.035e-3
1.504,   2.156e-3
1.506,   2.277e-3
1.508,   2.406e-3
1.510,   2.541e-3
1.512,   2.685e-3
1.514,   2.828e-3
1.516,   2.975e-3
1.518,   3.129e-3
1.520,   3.291e-3
1.522,   3.460e-3
1.524,   3.621e-3
1.526,   3.789e-3
1.528,   3.956e-3
1.530,   4.141e-3
1.532,   4.325e-3
1.534,   4.507e-3
1.536,   4.687e-3
1.538,   4.890e-3
1.540,   5.094e-3
1.542,   5.296e-3
1.544,   5.495e-3
1.546,   5.691e-3
1.548,   5.918e-3
1.550,   6.149e-3
1.552,   6.418e-3
1.554,   6.630e-3
1.556,   6.856e-3
1.558,   7.074e-3
1.560,   7.288e-3
1.562,   7.524e-3
1.564,   7.769e-3
1.566,   8.382e-3
1.568,   8.619e-3
1.570,   8.841e-3
1.572,   9.088e-3
1.574,   9.741e-3
1.576,   9.964e-3
1.578,   1.007e-2
1.580,   1.007e-2
1.582,   1.007e-2
1.584,   1.007e-2
1.586,   1.007e-2
1.588,   1.007e-2
1.590,   1.007e-2

File: B2_BEST_400#12_Full-281mV.txt
Jan. 18, 2023   14:41:13
Linear Sweep Voltammetry
File: d:\current work\al_oer\electrochemical test data\batch 2\400\B2_BEST_400#12_Full-281mV.txt
Data Source:  Experiment
Instrument Model:  CHI660E
Header:
Note:

Init E (V) = 1.098

Final E (V) = 1.659

Scan Rate (V/s) = 0.010
Sample Interval (V) = 0.001
Quiet Time (sec) = 2
Sensitivity (A/V) = 0.001
Comp R (ohm) = 4.8

Results:

Channel 1:

Potential/V, Current/A
1.098,   1.112e-4
1.100,   9.969e-5
1.102,   8.915e-5
1.104,   8.072e-5
1.106,   7.367e-5
1.108,   6.801e-5
1.110,   6.346e-5
1.112,   5.955e-5
1.114,   5.611e-5
1.116,   5.322e-5
1.118,   5.081e-5
1.120,   4.863e-5
1.122,   4.685e-5
1.124,   4.527e-5
1.126,   4.370e-5
1.128,   4.229e-5
1.130,   4.115e-5
1.132,   4.018e-5
1.134,   3.916e-5
1.136,   3.831e-5
1.138,   3.757e-5
1.140,   3.691e-5
1.142,   3.632e-5
1.144,   3.566e-5
1.146,   3.517e-5
1.148,   3.463e-5
1.150,   3.404e-5
1.152,   3.361e-5
1.154,   3.316e-5
1.156,   3.281e-5
1.158,   3.245e-5
1.160,   3.224e-5
1.162,   3.193e-5
1.164,   3.167e-5
1.166,   3.141e-5
1.168,   3.109e-5
1.170,   3.090e-5
1.172,   3.066e-5
1.174,   3.043e-5
1.176,   3.024e-5
1.178,   3.008e-5
1.180,   2.988e-5
1.182,   2.972e-5
1.184,   2.953e-5
1.186,   2.934e-5
1.188,   2.920e-5
1.190,   2.912e-5
1.192,   2.899e-5
1.194,   2.885e-5
1.196,   2.881e-5
1.198,   2.868e-5
1.200,   2.855e-5
1.202,   2.841e-5
1.204,   2.835e-5
1.206,   2.835e-5
1.208,   2.822e-5
1.210,   2.820e-5
1.212,   2.818e-5
1.214,   2.812e-5
1.216,   2.811e-5
1.218,   2.809e-5
1.220,   2.799e-5
1.222,   2.802e-5
1.224,   2.801e-5
1.226,   2.793e-5
1.228,   2.795e-5
1.230,   2.797e-5
1.232,   2.788e-5
1.234,   2.795e-5
1.236,   2.793e-5
1.238,   2.798e-5
1.240,   2.793e-5
1.242,   2.792e-5
1.244,   2.799e-5
1.246,   2.806e-5
1.248,   2.803e-5
1.250,   2.806e-5
1.252,   2.811e-5
1.254,   2.814e-5
1.256,   2.813e-5
1.258,   2.814e-5
1.260,   2.828e-5
1.262,   2.828e-5
1.264,   2.829e-5
1.266,   2.839e-5
1.268,   2.843e-5
1.270,   2.849e-5
1.272,   2.848e-5
1.274,   2.858e-5
1.276,   2.864e-5
1.278,   2.877e-5
1.280,   2.880e-5
1.282,   2.882e-5
1.284,   2.892e-5
1.286,   2.896e-5
1.288,   2.902e-5
1.290,   2.908e-5
1.292,   2.921e-5
1.294,   2.933e-5
1.296,   2.934e-5
1.298,   2.944e-5
1.300,   2.956e-5
1.302,   2.970e-5
1.304,   2.975e-5
1.306,   2.985e-5
1.308,   2.995e-5
1.310,   3.002e-5
1.312,   3.010e-5
1.314,   3.021e-5
1.316,   3.033e-5
1.318,   3.046e-5
1.320,   3.057e-5
1.322,   3.065e-5
1.324,   3.084e-5
1.326,   3.095e-5
1.328,   3.114e-5
1.330,   3.125e-5
1.332,   3.142e-5
1.334,   3.162e-5
1.336,   3.180e-5
1.338,   3.192e-5
1.340,   3.215e-5
1.342,   3.236e-5
1.344,   3.252e-5
1.346,   3.278e-5
1.348,   3.311e-5
1.350,   3.338e-5
1.352,   3.362e-5
1.354,   3.399e-5
1.356,   3.430e-5
1.358,   3.471e-5
1.360,   3.509e-5
1.362,   3.559e-5
1.364,   3.605e-5
1.366,   3.651e-5
1.368,   3.704e-5
1.370,   3.763e-5
1.372,   3.828e-5
1.374,   3.901e-5
1.376,   3.975e-5
1.378,   4.057e-5
1.380,   4.157e-5
1.382,   4.264e-5
1.384,   4.376e-5
1.386,   4.500e-5
1.388,   4.646e-5
1.390,   4.807e-5
1.392,   4.969e-5
1.394,   5.164e-5
1.396,   5.360e-5
1.398,   5.594e-5
1.400,   5.851e-5
1.402,   6.134e-5
1.404,   6.447e-5
1.406,   6.790e-5
1.408,   7.169e-5
1.410,   7.593e-5
1.412,   8.047e-5
1.414,   8.564e-5
1.416,   9.109e-5
1.418,   9.715e-5
1.420,   1.037e-4
1.422,   1.109e-4
1.424,   1.188e-4
1.426,   1.279e-4
1.428,   1.374e-4
1.430,   1.491e-4
1.432,   1.595e-4
1.434,   1.713e-4
1.436,   1.840e-4
1.438,   1.979e-4
1.440,   2.128e-4
1.442,   2.289e-4
1.444,   2.464e-4
1.446,   2.650e-4
1.448,   2.847e-4
1.450,   3.064e-4
1.452,   3.289e-4
1.454,   3.523e-4
1.456,   3.793e-4
1.458,   4.077e-4
1.460,   4.377e-4
1.462,   4.690e-4
1.464,   4.974e-4
1.466,   5.314e-4
1.468,   5.672e-4
1.470,   6.089e-4
1.472,   6.503e-4
1.474,   6.963e-4
1.476,   7.426e-4
1.478,   7.902e-4
1.480,   8.397e-4
1.482,   8.909e-4
1.484,   9.456e-4
1.486,   1.006e-3
1.488,   1.067e-3
1.490,   1.129e-3
1.492,   1.189e-3
1.494,   1.253e-3
1.496,   1.322e-3
1.498,   1.393e-3
1.500,   1.471e-3
1.502,   1.549e-3
1.504,   1.625e-3
1.506,   1.704e-3
1.508,   1.791e-3
1.510,   1.878e-3
1.512,   1.978e-3
1.514,   2.067e-3
1.516,   2.165e-3
1.518,   2.255e-3
1.520,   2.349e-3
1.522,   2.453e-3
1.524,   2.552e-3
1.526,   2.654e-3
1.528,   2.745e-3
1.530,   2.847e-3
1.532,   2.959e-3
1.534,   3.070e-3
1.536,   3.181e-3
1.538,   3.276e-3
1.540,   3.388e-3
1.542,   3.501e-3
1.544,   3.605e-3
1.546,   3.720e-3
1.548,   3.831e-3
1.550,   3.940e-3
1.552,   4.066e-3
1.554,   4.185e-3
1.556,   4.318e-3
1.558,   4.424e-3
1.560,   4.535e-3
1.562,   4.656e-3
1.564,   4.776e-3
1.566,   4.899e-3
1.568,   5.066e-3
1.570,   5.186e-3
1.572,   5.309e-3
1.574,   5.428e-3
1.576,   5.556e-3
1.578,   5.682e-3
1.580,   5.793e-3
1.582,   5.907e-3
1.584,   6.031e-3
1.586,   6.159e-3
1.588,   6.277e-3
1.590,   6.389e-3
1.592,   6.522e-3
1.594,   6.667e-3
1.596,   6.803e-3
1.598,   6.921e-3
1.600,   7.045e-3
1.602,   7.181e-3
1.604,   7.299e-3
1.606,   7.419e-3
1.608,   7.522e-3
1.610,   7.691e-3
1.612,   7.807e-3
1.614,   7.920e-3
1.616,   8.119e-3
1.618,   8.390e-3
1.620,   8.477e-3
1.622,   8.627e-3
1.624,   8.751e-3
1.626,   8.846e-3
1.628,   8.961e-3
1.630,   9.107e-3
1.632,   9.232e-3
1.634,   9.293e-3
1.636,   9.400e-3
1.638,   9.570e-3
1.640,   9.699e-3
1.642,   9.826e-3
1.644,   9.932e-3
1.646,   1.002e-2
1.648,   1.007e-2
1.650,   1.007e-2
1.652,   1.007e-2
1.654,   1.007e-2
1.656,   1.007e-2
1.658,   1.007e-2
1.659,   1.007e-2

File: B2_BEST_400#16_High_Quality-253mV.txt
Jan. 14, 2023   15:23:47
Linear Sweep Voltammetry
File: d:\current work\al_oer\electrochemical test data\batch 2\400\B2_BEST_400#16_High_Quality-253mV.txt
Data Source:  Experiment
Instrument Model:  CHI660E
Header:
Note:

Init E (V) = 1.099

Final E (V) = 1.632

Scan Rate (V/s) = 0.010
Sample Interval (V) = 0.001
Quiet Time (sec) = 2
Sensitivity (A/V) = 0.001
Comp R (ohm) = 6.4

Results:

Channel 1:
Ep = 1.349V
ip = 9.996e-3A
Ah = 7.654e-2C

Potential/V, Current/A
1.099,   1.821e-4
1.101,   1.646e-4
1.103,   1.473e-4
1.105,   1.337e-4
1.107,   1.225e-4
1.109,   1.135e-4
1.111,   1.059e-4
1.113,   9.956e-5
1.115,   9.421e-5
1.117,   8.964e-5
1.119,   8.569e-5
1.121,   8.212e-5
1.123,   7.903e-5
1.125,   7.622e-5
1.127,   7.368e-5
1.129,   7.146e-5
1.131,   6.946e-5
1.133,   6.769e-5
1.135,   6.602e-5
1.137,   6.448e-5
1.139,   6.308e-5
1.141,   6.189e-5
1.143,   6.071e-5
1.145,   5.958e-5
1.147,   5.857e-5
1.149,   5.775e-5
1.151,   5.689e-5
1.153,   5.616e-5
1.155,   5.541e-5
1.157,   5.468e-5
1.159,   5.410e-5
1.161,   5.350e-5
1.163,   5.296e-5
1.165,   5.249e-5
1.167,   5.202e-5
1.169,   5.158e-5
1.171,   5.129e-5
1.173,   5.094e-5
1.175,   5.054e-5
1.177,   5.021e-5
1.179,   4.992e-5
1.181,   4.968e-5
1.183,   4.950e-5
1.185,   4.922e-5
1.187,   4.903e-5
1.189,   4.887e-5
1.191,   4.873e-5
1.193,   4.852e-5
1.195,   4.840e-5
1.197,   4.835e-5
1.199,   4.821e-5
1.201,   4.806e-5
1.203,   4.798e-5
1.205,   4.796e-5
1.207,   4.791e-5
1.209,   4.787e-5
1.211,   4.775e-5
1.213,   4.784e-5
1.215,   4.771e-5
1.217,   4.770e-5
1.219,   4.769e-5
1.221,   4.767e-5
1.223,   4.772e-5
1.225,   4.762e-5
1.227,   4.761e-5
1.229,   4.769e-5
1.231,   4.771e-5
1.233,   4.770e-5
1.235,   4.778e-5
1.237,   4.773e-5
1.239,   4.773e-5
1.241,   4.773e-5
1.243,   4.773e-5
1.245,   4.788e-5
1.247,   4.785e-5
1.249,   4.784e-5
1.251,   4.782e-5
1.253,   4.795e-5
1.255,   4.793e-5
1.257,   4.794e-5
1.259,   4.797e-5
1.261,   4.808e-5
1.263,   4.802e-5
1.265,   4.800e-5
1.267,   4.810e-5
1.269,   4.815e-5
1.271,   4.812e-5
1.273,   4.815e-5
1.275,   4.818e-5
1.277,   4.827e-5
1.279,   4.824e-5
1.281,   4.825e-5
1.283,   4.831e-5
1.285,   4.841e-5
1.287,   4.849e-5
1.289,   4.842e-5
1.291,   4.847e-5
1.293,   4.859e-5
1.295,   4.860e-5
1.297,   4.863e-5
1.299,   4.869e-5
1.301,   4.878e-5
1.303,   4.881e-5
1.305,   4.890e-5
1.307,   4.895e-5
1.309,   4.902e-5
1.311,   4.919e-5
1.313,   4.920e-5
1.315,   4.933e-5
1.317,   4.953e-5
1.319,   4.964e-5
1.321,   4.978e-5
1.323,   4.986e-5
1.325,   5.017e-5
1.327,   5.021e-5
1.329,   5.042e-5
1.331,   5.058e-5
1.333,   5.085e-5
1.335,   5.105e-5
1.337,   5.124e-5
1.339,   5.147e-5
1.341,   5.193e-5
1.343,   5.225e-5
1.345,   5.254e-5
1.347,   5.295e-5
1.349,   5.345e-5
1.351,   5.401e-5
1.353,   5.438e-5
1.355,   5.496e-5
1.357,   5.566e-5
1.359,   5.630e-5
1.361,   5.703e-5
1.363,   5.785e-5
1.365,   5.873e-5
1.367,   5.972e-5
1.369,   6.082e-5
1.371,   6.188e-5
1.373,   6.329e-5
1.375,   6.474e-5
1.377,   6.625e-5
1.379,   6.787e-5
1.381,   6.982e-5
1.383,   7.192e-5
1.385,   7.413e-5
1.387,   7.674e-5
1.389,   7.957e-5
1.391,   8.254e-5
1.393,   8.582e-5
1.395,   8.952e-5
1.397,   9.364e-5
1.399,   9.808e-5
1.401,   1.031e-4
1.403,   1.084e-4
1.405,   1.145e-4
1.407,   1.213e-4
1.409,   1.286e-4
1.411,   1.368e-4
1.413,   1.457e-4
1.415,   1.556e-4
1.417,   1.664e-4
1.419,   1.781e-4
1.421,   1.911e-4
1.423,   2.052e-4
1.425,   2.206e-4
1.427,   2.375e-4
1.429,   2.558e-4
1.431,   2.760e-4
1.433,   2.975e-4
1.435,   3.211e-4
1.437,   3.466e-4
1.439,   3.741e-4
1.441,   4.040e-4
1.443,   4.366e-4
1.445,   4.717e-4
1.447,   5.098e-4
1.449,   5.507e-4
1.451,   5.942e-4
1.453,   6.424e-4
1.455,   6.931e-4
1.457,   7.475e-4
1.459,   8.061e-4
1.461,   8.682e-4
1.463,   9.347e-4
1.465,   1.006e-3
1.467,   1.081e-3
1.469,   1.162e-3
1.471,   1.247e-3
1.473,   1.338e-3
1.475,   1.434e-3
1.477,   1.536e-3
1.479,   1.645e-3
1.481,   1.759e-3
1.483,   1.879e-3
1.485,   2.009e-3
1.487,   2.144e-3
1.489,   2.286e-3
1.491,   2.435e-3
1.493,   2.592e-3
1.495,   2.759e-3
1.497,   2.931e-3
1.499,   3.110e-3
1.501,   3.301e-3
1.503,   3.500e-3
1.505,   3.699e-3
1.507,   3.912e-3
1.509,   4.130e-3
1.511,   4.367e-3
1.513,   4.619e-3
1.515,   4.847e-3
1.517,   5.105e-3
1.519,   5.367e-3
1.521,   5.638e-3
1.523,   5.939e-3
1.525,   6.211e-3
1.527,   6.518e-3
1.529,   6.890e-3
1.531,   7.198e-3
1.533,   7.560e-3
1.535,   7.923e-3
1.537,   8.241e-3
1.539,   8.592e-3
1.541,   8.991e-3
1.543,   9.303e-3
1.545,   9.824e-3
1.547,   1.006e-2
1.549,   1.006e-2
1.551,   1.006e-2
1.553,   1.006e-2
1.555,   1.006e-2
1.557,   1.006e-2
1.559,   1.006e-2
1.561,   1.006e-2
1.563,   1.006e-2
1.565,   1.006e-2
1.567,   1.006e-2
1.569,   1.006e-2
1.571,   1.006e-2
1.573,   1.006e-2
1.575,   1.006e-2
1.577,   1.006e-2
1.579,   1.006e-2
1.581,   1.006e-2
1.583,   1.006e-2
1.585,   1.006e-2
1.587,   1.006e-2
1.589,   1.006e-2
1.591,   1.006e-2
1.593,   1.006e-2
1.595,   1.006e-2
1.597,   1.006e-2
1.599,   1.006e-2
1.601,   1.006e-2
1.603,   1.006e-2
1.605,   1.006e-2
1.607,   1.006e-2
1.609,   1.006e-2
1.611,   1.006e-2
1.613,   1.006e-2
1.615,   1.006e-2
1.617,   1.006e-2
1.619,   1.006e-2
1.621,   1.006e-2
1.623,   1.006e-2
1.625,   1.006e-2
1.627,   1.006e-2
1.629,   1.006e-2
1.631,   1.006e-2
1.632,   1.006e-2