Folder: DASH/Experimental Records, Raw Data, and Supplementary Notes and Figures/batch2/final500

Note: README.md
# DASH
This is the online repository that stores code, data and supplementary figures of the research work: <Leveraging Data Mining, Active Learning, and Domain Adaptation in a Multi-Stage, Machine Learning-Driven Approach for the Efficient Discovery of Advanced Acidic Oxygen Evolution Electrocatalysts> by Rui Ding et. al. (https://arxiv.org/abs/2407.04877)
![Workflow Schematic](https://github.com/ruiding-uchicago/D.A.S.H./blob/main/Online%20Repository%20Figures/D.A.S.H.%20Workflow.jpg)
## Code Description

Our code is written and uploaded on GitHub in Jupyter notebook file format, which is already very easy to conduct and get results. Our code does not include providing a new python library, but users could track how we train machine learning models in Jupyter ipynb files. Also, we have provided all original dataset CSV files to drive the active learning flow. Additionally, we have detailed the python version and package environment used for this work, focusing on machine learning-related packages.

## Environment
This project was trained using Python version 3.9.12. Below is the list of machine learning-related packages and their versions used in this project on the local machine we used equipped with 2080 Ti GPU, users could install anaconda (https://www.anaconda.com/download) and using pip install to install the packages below for setting environment to run in the Jupyter notebook (https://docs.anaconda.com/ae-notebooks/user-guide/basic-tasks/apps/jupyter/index.html):

absl-py 1.2.0
ase 3.22.1
catboost 1.0.6
cython 0.29.28
dask 2022.2.1
deep-forest 0.1.7
gensim 4.1.2
h5py 3.6.0
keras 2.9.0
Keras-Preprocessing 1.1.2
keras-tcn 3.5.0
lightgbm 3.3.2
matplotlib 3.4.3
numpy 1.23.5
pandas 1.4.2
pytorch-lightning 2.0.1
pymatgen 2023.8.10
scikit-learn 1.0.2
scipy 1.8.0
scikit-opt  0.6.6
scikit-optimize 0.9.0
seaborn 0.11.2
tensorboard                  2.10.1
tensorboard-data-server      0.6.1
tensorboard-plugin-wit       1.8.1
tensorflow-estimator         2.10.0
tensorflow-gpu               2.10.0
tensorflow-io-gcs-filesystem 0.31.0
torch 2.0.0
torchvision 0.15.1
xgboost 1.6.2

File: B2_BEST_500#1_Full-257mV.txt
Jan. 18, 2023   15:16:56
Linear Sweep Voltammetry
File: d:\current work\al_oer\electrochemical test data\batch 2\500\B2_BEST_500#1_Full-257mV.txt
Data Source:  Experiment
Instrument Model:  CHI660E
Header:
Note:

Init E (V) = 1.098

Final E (V) = 1.558

Scan Rate (V/s) = 0.010
Sample Interval (V) = 0.001
Quiet Time (sec) = 2
Sensitivity (A/V) = 0.001
Comp R (ohm) = 5.0

Results:

Channel 1:

Potential/V, Current/A
1.098,   1.209e-4
1.100,   1.155e-4
1.102,   1.035e-4
1.104,   9.415e-5
1.106,   8.684e-5
1.108,   8.105e-5
1.110,   7.621e-5
1.112,   7.214e-5
1.114,   6.880e-5
1.116,   6.591e-5
1.118,   6.375e-5
1.120,   6.169e-5
1.122,   5.961e-5
1.124,   5.845e-5
1.126,   5.738e-5
1.128,   5.605e-5
1.130,   5.515e-5
1.132,   5.467e-5
1.134,   5.406e-5
1.136,   5.288e-5
1.138,   5.242e-5
1.140,   5.195e-5
1.142,   5.142e-5
1.144,   5.133e-5
1.146,   5.097e-5
1.148,   5.083e-5
1.150,   5.068e-5
1.152,   5.051e-5
1.154,   5.029e-5
1.156,   5.035e-5
1.158,   5.033e-5
1.160,   5.014e-5
1.162,   5.015e-5
1.164,   5.036e-5
1.166,   5.030e-5
1.168,   5.032e-5
1.170,   5.062e-5
1.172,   5.075e-5
1.174,   5.089e-5
1.176,   5.104e-5
1.178,   5.100e-5
1.180,   5.135e-5
1.182,   5.169e-5
1.184,   5.184e-5
1.186,   5.195e-5
1.188,   5.237e-5
1.190,   5.257e-5
1.192,   5.272e-5
1.194,   5.304e-5
1.196,   5.347e-5
1.198,   5.345e-5
1.200,   5.378e-5
1.202,   5.415e-5
1.204,   5.442e-5
1.206,   5.471e-5
1.208,   5.504e-5
1.210,   5.515e-5
1.212,   5.566e-5
1.214,   5.599e-5
1.216,   5.604e-5
1.218,   5.640e-5
1.220,   5.685e-5
1.222,   5.707e-5
1.224,   5.734e-5
1.226,   5.756e-5
1.228,   5.787e-5
1.230,   5.820e-5
1.232,   5.832e-5
1.234,   5.857e-5
1.236,   5.899e-5
1.238,   5.916e-5
1.240,   5.917e-5
1.242,   5.949e-5
1.244,   5.973e-5
1.246,   5.982e-5
1.248,   6.006e-5
1.250,   6.015e-5
1.252,   6.030e-5
1.254,   6.060e-5
1.256,   6.047e-5
1.258,   6.057e-5
1.260,   6.097e-5
1.262,   6.092e-5
1.264,   6.080e-5
1.266,   6.098e-5
1.268,   6.113e-5
1.270,   6.102e-5
1.272,   6.121e-5
1.274,   6.120e-5
1.276,   6.120e-5
1.278,   6.137e-5
1.280,   6.137e-5
1.282,   6.119e-5
1.284,   6.138e-5
1.286,   6.159e-5
1.288,   6.143e-5
1.290,   6.131e-5
1.292,   6.167e-5
1.294,   6.160e-5
1.296,   6.150e-5
1.298,   6.163e-5
1.300,   6.179e-5
1.302,   6.176e-5
1.304,   6.185e-5
1.306,   6.196e-5
1.308,   6.210e-5
1.310,   6.217e-5
1.312,   6.242e-5
1.314,   6.246e-5
1.316,   6.264e-5
1.318,   6.284e-5
1.320,   6.304e-5
1.322,   6.306e-5
1.324,   6.367e-5
1.326,   6.377e-5
1.328,   6.376e-5
1.330,   6.409e-5
1.332,   6.449e-5
1.334,   6.474e-5
1.336,   6.499e-5
1.338,   6.534e-5
1.340,   6.564e-5
1.342,   6.603e-5
1.344,   6.640e-5
1.346,   6.666e-5
1.348,   6.727e-5
1.350,   6.774e-5
1.352,   6.787e-5
1.354,   6.862e-5
1.356,   6.921e-5
1.358,   6.963e-5
1.360,   7.032e-5
1.362,   7.099e-5
1.364,   7.153e-5
1.366,   7.232e-5
1.368,   7.305e-5
1.370,   7.359e-5
1.372,   7.467e-5
1.374,   7.581e-5
1.376,   7.655e-5
1.378,   7.756e-5
1.380,   7.894e-5
1.382,   8.000e-5
1.384,   8.129e-5
1.386,   8.275e-5
1.388,   8.444e-5
1.390,   8.623e-5
1.392,   8.822e-5
1.394,   9.027e-5
1.396,   9.269e-5
1.398,   9.545e-5
1.400,   9.824e-5
1.402,   1.013e-4
1.404,   1.053e-4
1.406,   1.092e-4
1.408,   1.136e-4
1.410,   1.189e-4
1.412,   1.246e-4
1.414,   1.309e-4
1.416,   1.378e-4
1.418,   1.455e-4
1.420,   1.542e-4
1.422,   1.638e-4
1.424,   1.743e-4
1.426,   1.864e-4
1.428,   1.993e-4
1.430,   2.138e-4
1.432,   2.294e-4
1.434,   2.470e-4
1.436,   2.665e-4
1.438,   2.876e-4
1.440,   3.104e-4
1.442,   3.361e-4
1.444,   3.641e-4
1.446,   3.944e-4
1.448,   4.278e-4
1.450,   4.636e-4
1.452,   5.032e-4
1.454,   5.461e-4
1.456,   5.923e-4
1.458,   6.421e-4
1.460,   6.965e-4
1.462,   7.548e-4
1.464,   8.171e-4
1.466,   8.840e-4
1.468,   9.566e-4
1.470,   1.034e-3
1.472,   1.116e-3
1.474,   1.204e-3
1.476,   1.297e-3
1.478,   1.396e-3
1.480,   1.500e-3
1.482,   1.612e-3
1.484,   1.727e-3
1.486,   1.853e-3
1.488,   1.987e-3
1.490,   2.120e-3
1.492,   2.261e-3
1.494,   2.405e-3
1.496,   2.560e-3
1.498,   2.727e-3
1.500,   2.886e-3
1.502,   3.080e-3
1.504,   3.245e-3
1.506,   3.424e-3
1.508,   3.638e-3
1.510,   3.889e-3
1.512,   4.074e-3
1.514,   4.263e-3
1.516,   4.446e-3
1.518,   4.721e-3
1.520,   4.980e-3
1.522,   5.219e-3
1.524,   5.520e-3
1.526,   5.787e-3
1.528,   5.960e-3
1.530,   6.166e-3
1.532,   6.434e-3
1.534,   6.960e-3
1.536,   7.107e-3
1.538,   7.300e-3
1.540,   7.548e-3
1.542,   7.743e-3
1.544,   8.502e-3
1.546,   8.950e-3
1.548,   9.398e-3
1.550,   9.526e-3
1.552,   9.758e-3
1.554,   9.993e-3
1.556,   1.007e-2
1.558,   1.007e-2

File: B2_BEST_500#5_Full-354mV.txt
Jan. 18, 2023   16:10:28
Linear Sweep Voltammetry
File: d:\current work\al_oer\electrochemical test data\batch 2\500\B2_BEST_500#5_Full-354mV.txt
Data Source:  Experiment
Instrument Model:  CHI660E
Header:
Note:

Init E (V) = 1.099

Final E (V) = 1.701

Scan Rate (V/s) = 0.010
Sample Interval (V) = 0.001
Quiet Time (sec) = 2
Sensitivity (A/V) = 0.001
Comp R (ohm) = 4.7

Results:

Channel 1:

Potential/V, Current/A
1.099,   1.512e-5
1.102,   1.319e-5
1.105,   1.137e-5
1.108,   1.003e-5
1.111,   9.079e-6
1.114,   8.304e-6
1.117,   7.759e-6
1.120,   7.336e-6
1.123,   6.982e-6
1.126,   6.691e-6
1.129,   6.486e-6
1.132,   6.304e-6
1.135,   6.103e-6
1.138,   5.967e-6
1.141,   5.891e-6
1.144,   5.864e-6
1.147,   5.718e-6
1.150,   5.681e-6
1.153,   5.657e-6
1.156,   5.638e-6
1.159,   5.657e-6
1.162,   5.652e-6
1.165,   5.616e-6
1.168,   5.647e-6
1.171,   5.709e-6
1.174,   5.670e-6
1.177,   5.673e-6
1.180,   5.725e-6
1.183,   5.813e-6
1.186,   5.969e-6
1.189,   5.966e-6
1.192,   6.038e-6
1.195,   6.069e-6
1.198,   6.064e-6
1.201,   6.129e-6
1.204,   6.190e-6
1.207,   6.277e-6
1.210,   6.315e-6
1.213,   6.380e-6
1.216,   6.435e-6
1.219,   6.468e-6
1.222,   6.576e-6
1.225,   6.576e-6
1.228,   6.688e-6
1.231,   6.755e-6
1.234,   6.731e-6
1.237,   6.846e-6
1.240,   6.888e-6
1.243,   6.937e-6
1.246,   6.961e-6
1.249,   7.026e-6
1.252,   7.113e-6
1.255,   7.142e-6
1.258,   7.211e-6
1.261,   7.248e-6
1.264,   7.335e-6
1.267,   7.339e-6
1.270,   7.419e-6
1.273,   7.503e-6
1.276,   7.498e-6
1.279,   7.539e-6
1.282,   7.657e-6
1.285,   7.671e-6
1.288,   7.775e-6
1.291,   7.852e-6
1.294,   7.920e-6
1.297,   8.008e-6
1.300,   8.154e-6
1.303,   8.190e-6
1.306,   8.366e-6
1.309,   8.452e-6
1.312,   8.505e-6
1.315,   8.664e-6
1.318,   8.763e-6
1.321,   8.928e-6
1.324,   9.078e-6
1.327,   9.202e-6
1.330,   9.379e-6
1.333,   9.480e-6
1.336,   9.589e-6
1.339,   9.758e-6
1.342,   9.959e-6
1.345,   1.010e-5
1.348,   1.028e-5
1.351,   1.048e-5
1.354,   1.058e-5
1.357,   1.074e-5
1.360,   1.099e-5
1.363,   1.115e-5
1.366,   1.140e-5
1.369,   1.159e-5
1.372,   1.180e-5
1.375,   1.205e-5
1.378,   1.233e-5
1.381,   1.257e-5
1.384,   1.289e-5
1.387,   1.327e-5
1.390,   1.366e-5
1.393,   1.411e-5
1.396,   1.474e-5
1.399,   1.537e-5
1.402,   1.609e-5
1.405,   1.695e-5
1.408,   1.795e-5
1.411,   1.909e-5
1.414,   2.047e-5
1.417,   2.205e-5
1.420,   2.381e-5
1.423,   2.582e-5
1.426,   2.812e-5
1.429,   3.086e-5
1.432,   3.378e-5
1.435,   3.719e-5
1.438,   4.096e-5
1.441,   4.533e-5
1.444,   5.028e-5
1.447,   5.580e-5
1.450,   6.205e-5
1.453,   6.904e-5
1.456,   7.692e-5
1.459,   8.581e-5
1.462,   9.557e-5
1.465,   1.066e-4
1.468,   1.189e-4
1.471,   1.322e-4
1.474,   1.469e-4
1.477,   1.631e-4
1.480,   1.810e-4
1.483,   2.004e-4
1.486,   2.216e-4
1.489,   2.450e-4
1.492,   2.697e-4
1.495,   2.970e-4
1.498,   3.254e-4
1.501,   3.560e-4
1.504,   3.893e-4
1.507,   4.232e-4
1.510,   4.600e-4
1.513,   4.981e-4
1.516,   5.381e-4
1.519,   5.809e-4
1.522,   6.245e-4
1.525,   6.682e-4
1.528,   7.166e-4
1.531,   7.667e-4
1.534,   8.188e-4
1.537,   8.725e-4
1.540,   9.276e-4
1.543,   9.831e-4
1.546,   1.043e-3
1.549,   1.097e-3
1.552,   1.161e-3
1.555,   1.224e-3
1.558,   1.289e-3
1.561,   1.353e-3
1.564,   1.422e-3
1.567,   1.493e-3
1.570,   1.562e-3
1.573,   1.635e-3
1.576,   1.707e-3
1.579,   1.790e-3
1.582,   1.876e-3
1.585,   1.952e-3
1.588,   2.027e-3
1.591,   2.104e-3
1.594,   2.193e-3
1.597,   2.270e-3
1.600,   2.346e-3
1.603,   2.435e-3
1.606,   2.529e-3
1.609,   2.616e-3
1.612,   2.699e-3
1.615,   2.790e-3
1.618,   2.875e-3
1.621,   2.980e-3
1.624,   3.047e-3
1.627,   3.144e-3
1.630,   3.207e-3
1.633,   3.287e-3
1.636,   3.371e-3
1.639,   3.429e-3
1.642,   3.517e-3
1.645,   3.578e-3
1.648,   3.669e-3
1.651,   3.737e-3
1.654,   3.789e-3
1.657,   3.832e-3
1.660,   3.927e-3
1.663,   3.991e-3
1.666,   4.048e-3
1.669,   4.091e-3
1.672,   4.146e-3
1.675,   4.201e-3
1.678,   4.254e-3
1.681,   4.313e-3
1.684,   4.337e-3
1.687,   4.359e-3
1.690,   4.371e-3
1.693,   4.404e-3
1.696,   4.431e-3
1.699,   4.448e-3
1.701,   4.482e-3

File: B2_BEST_500#13_Full-377mV.txt
Jan. 19, 2023   12:22:31
Linear Sweep Voltammetry
File: d:\current work\al_oer\electrochemical test data\batch 2\500\B2_BEST_500#13_Full-377mV.txt
Data Source:  Experiment
Instrument Model:  CHI660E
Header:
Note:

Init E (V) = 1.099

Final E (V) = 1.798

Scan Rate (V/s) = 0.010
Sample Interval (V) = 0.001
Quiet Time (sec) = 2
Sensitivity (A/V) = 0.001

Results:

Channel 1:

Potential/V, Current/A
1.099,   -1.674e-5
1.102,   -9.952e-6
1.105,   -6.581e-6
1.108,   -4.291e-6
1.111,   -2.601e-6
1.114,   -1.372e-6
1.117,   -3.767e-7
1.120,   4.781e-7
1.123,   1.123e-6
1.126,   1.696e-6
1.129,   2.217e-6
1.132,   2.660e-6
1.135,   3.038e-6
1.138,   3.403e-6
1.141,   3.774e-6
1.144,   4.029e-6
1.147,   4.290e-6
1.150,   4.542e-6
1.153,   4.788e-6
1.156,   5.017e-6
1.159,   5.247e-6
1.162,   5.452e-6
1.165,   5.721e-6
1.168,   5.914e-6
1.171,   6.114e-6
1.174,   6.329e-6
1.177,   6.502e-6
1.180,   6.754e-6
1.183,   6.938e-6
1.186,   7.160e-6
1.189,   7.300e-6
1.192,   7.484e-6
1.195,   7.640e-6
1.198,   7.822e-6
1.201,   7.993e-6
1.204,   8.156e-6
1.207,   8.339e-6
1.210,   8.519e-6
1.213,   8.655e-6
1.216,   8.795e-6
1.219,   8.972e-6
1.222,   9.092e-6
1.225,   9.236e-6
1.228,   9.376e-6
1.231,   9.549e-6
1.234,   9.655e-6
1.237,   9.799e-6
1.240,   9.891e-6
1.243,   1.003e-5
1.246,   1.013e-5
1.249,   1.026e-5
1.252,   1.038e-5
1.255,   1.052e-5
1.258,   1.063e-5
1.261,   1.073e-5
1.264,   1.079e-5
1.267,   1.096e-5
1.270,   1.102e-5
1.273,   1.116e-5
1.276,   1.124e-5
1.279,   1.141e-5
1.282,   1.150e-5
1.285,   1.161e-5
1.288,   1.173e-5
1.291,   1.181e-5
1.294,   1.194e-5
1.297,   1.206e-5
1.300,   1.216e-5
1.303,   1.228e-5
1.306,   1.245e-5
1.309,   1.252e-5
1.312,   1.265e-5
1.315,   1.277e-5
1.318,   1.286e-5
1.321,   1.302e-5
1.324,   1.316e-5
1.327,   1.333e-5
1.330,   1.342e-5
1.333,   1.357e-5
1.336,   1.369e-5
1.339,   1.383e-5
1.342,   1.402e-5
1.345,   1.419e-5
1.348,   1.435e-5
1.351,   1.452e-5
1.354,   1.471e-5
1.357,   1.494e-5
1.360,   1.510e-5
1.363,   1.532e-5
1.366,   1.551e-5
1.369,   1.575e-5
1.372,   1.600e-5
1.375,   1.630e-5
1.378,   1.662e-5
1.381,   1.683e-5
1.384,   1.719e-5
1.387,   1.755e-5
1.390,   1.794e-5
1.393,   1.841e-5
1.396,   1.885e-5
1.399,   1.944e-5
1.402,   2.006e-5
1.405,   2.078e-5
1.408,   2.155e-5
1.411,   2.248e-5
1.414,   2.356e-5
1.417,   2.474e-5
1.420,   2.614e-5
1.423,   2.768e-5
1.426,   2.948e-5
1.429,   3.146e-5
1.432,   3.372e-5
1.435,   3.635e-5
1.438,   3.913e-5
1.441,   4.238e-5
1.444,   4.610e-5
1.447,   5.020e-5
1.450,   5.481e-5
1.453,   5.989e-5
1.456,   6.556e-5
1.459,   7.172e-5
1.462,   7.873e-5
1.465,   8.594e-5
1.468,   9.406e-5
1.471,   1.036e-4
1.474,   1.135e-4
1.477,   1.240e-4
1.480,   1.351e-4
1.483,   1.473e-4
1.486,   1.606e-4
1.489,   1.744e-4
1.492,   1.898e-4
1.495,   2.054e-4
1.498,   2.222e-4
1.501,   2.431e-4
1.504,   2.630e-4
1.507,   2.845e-4
1.510,   3.062e-4
1.513,   3.295e-4
1.516,   3.530e-4
1.519,   3.819e-4
1.522,   4.099e-4
1.525,   4.389e-4
1.528,   4.696e-4
1.531,   5.006e-4
1.534,   5.341e-4
1.537,   5.701e-4
1.540,   6.092e-4
1.543,   6.486e-4
1.546,   6.883e-4
1.549,   7.266e-4
1.552,   7.741e-4
1.555,   8.253e-4
1.558,   8.770e-4
1.561,   9.284e-4
1.564,   9.802e-4
1.567,   1.033e-3
1.570,   1.093e-3
1.573,   1.153e-3
1.576,   1.208e-3
1.579,   1.269e-3
1.582,   1.330e-3
1.585,   1.393e-3
1.588,   1.452e-3
1.591,   1.531e-3
1.594,   1.598e-3
1.597,   1.666e-3
1.600,   1.739e-3
1.603,   1.809e-3
1.606,   1.891e-3
1.609,   1.978e-3
1.612,   2.049e-3
1.615,   2.134e-3
1.618,   2.216e-3
1.621,   2.300e-3
1.624,   2.387e-3
1.627,   2.478e-3
1.630,   2.559e-3
1.633,   2.637e-3
1.636,   2.752e-3
1.639,   2.846e-3
1.642,   2.938e-3
1.645,   3.026e-3
1.648,   3.135e-3
1.651,   3.234e-3
1.654,   3.327e-3
1.657,   3.429e-3
1.660,   3.532e-3
1.663,   3.629e-3
1.666,   3.751e-3
1.669,   3.856e-3
1.672,   3.962e-3
1.675,   4.077e-3
1.678,   4.189e-3
1.681,   4.296e-3
1.684,   4.411e-3
1.687,   4.515e-3
1.690,   4.632e-3
1.693,   4.776e-3
1.696,   4.898e-3
1.699,   5.000e-3
1.702,   5.125e-3
1.705,   5.243e-3
1.708,   5.355e-3
1.711,   5.489e-3
1.714,   5.606e-3
1.717,   5.741e-3
1.720,   5.848e-3
1.723,   5.973e-3
1.726,   6.099e-3
1.729,   6.201e-3
1.732,   6.332e-3
1.735,   6.454e-3
1.738,   6.581e-3
1.741,   6.682e-3
1.744,   6.793e-3
1.747,   6.958e-3
1.750,   7.067e-3
1.753,   7.180e-3
1.756,   7.289e-3
1.759,   7.434e-3
1.762,   7.532e-3
1.765,   7.641e-3
1.768,   7.749e-3
1.771,   7.849e-3
1.774,   7.983e-3
1.777,   8.075e-3
1.780,   8.194e-3
1.783,   8.313e-3
1.786,   8.406e-3
1.789,   8.513e-3
1.792,   8.615e-3
1.795,   8.685e-3
1.798,   8.826e-3

File: B2_VARIANCE_500#8_High_Quality-295mV.txt
Jan. 18, 2023   16:42:43
Linear Sweep Voltammetry
File: d:\current work\al_oer\electrochemical test data\batch 2\500\B2_VARIANCE_500#8_High_Quality-295mV.txt
Data Source:  Experiment
Instrument Model:  CHI660E
Header:
Note:

Init E (V) = 1.099

Final E (V) = 1.698

Scan Rate (V/s) = 0.010
Sample Interval (V) = 0.001
Quiet Time (sec) = 2
Sensitivity (A/V) = 0.001
Comp R (ohm) = 5.1

Results:

Channel 1:

Potential/V, Current/A
1.099,   5.123e-5
1.101,   4.902e-5
1.103,   4.447e-5
1.105,   4.081e-5
1.107,   3.797e-5
1.109,   3.559e-5
1.111,   3.368e-5
1.113,   3.204e-5
1.115,   3.066e-5
1.117,   2.960e-5
1.119,   2.858e-5
1.121,   2.764e-5
1.123,   2.697e-5
1.125,   2.635e-5
1.127,   2.575e-5
1.129,   2.520e-5
1.131,   2.483e-5
1.133,   2.441e-5
1.135,   2.409e-5
1.137,   2.383e-5
1.139,   2.351e-5
1.141,   2.328e-5
1.143,   2.309e-5
1.145,   2.288e-5
1.147,   2.270e-5
1.149,   2.261e-5
1.151,   2.248e-5
1.153,   2.229e-5
1.155,   2.227e-5
1.157,   2.221e-5
1.159,   2.208e-5
1.161,   2.203e-5
1.163,   2.198e-5
1.165,   2.198e-5
1.167,   2.198e-5
1.169,   2.200e-5
1.171,   2.196e-5
1.173,   2.198e-5
1.175,   2.203e-5
1.177,   2.191e-5
1.179,   2.197e-5
1.181,   2.205e-5
1.183,   2.209e-5
1.185,   2.201e-5
1.187,   2.214e-5
1.189,   2.220e-5
1.191,   2.220e-5
1.193,   2.224e-5
1.195,   2.236e-5
1.197,   2.242e-5
1.199,   2.250e-5
1.201,   2.257e-5
1.203,   2.253e-5
1.205,   2.274e-5
1.207,   2.282e-5
1.209,   2.280e-5
1.211,   2.284e-5
1.213,   2.303e-5
1.215,   2.310e-5
1.217,   2.304e-5
1.219,   2.322e-5
1.221,   2.332e-5
1.223,   2.342e-5
1.225,   2.344e-5
1.227,   2.357e-5
1.229,   2.360e-5
1.231,   2.376e-5
1.233,   2.383e-5
1.235,   2.381e-5
1.237,   2.395e-5
1.239,   2.407e-5
1.241,   2.408e-5
1.243,   2.412e-5
1.245,   2.426e-5
1.247,   2.433e-5
1.249,   2.427e-5
1.251,   2.441e-5
1.253,   2.453e-5
1.255,   2.449e-5
1.257,   2.461e-5
1.259,   2.470e-5
1.261,   2.477e-5
1.263,   2.485e-5
1.265,   2.487e-5
1.267,   2.486e-5
1.269,   2.506e-5
1.271,   2.513e-5
1.273,   2.508e-5
1.275,   2.517e-5
1.277,   2.535e-5
1.279,   2.531e-5
1.281,   2.541e-5
1.283,   2.547e-5
1.285,   2.553e-5
1.287,   2.557e-5
1.289,   2.569e-5
1.291,   2.570e-5
1.293,   2.576e-5
1.295,   2.592e-5
1.297,   2.593e-5
1.299,   2.597e-5
1.301,   2.617e-5
1.303,   2.620e-5
1.305,   2.619e-5
1.307,   2.628e-5
1.309,   2.650e-5
1.311,   2.652e-5
1.313,   2.661e-5
1.315,   2.675e-5
1.317,   2.681e-5
1.319,   2.696e-5
1.321,   2.707e-5
1.323,   2.717e-5
1.325,   2.744e-5
1.327,   2.759e-5
1.329,   2.763e-5
1.331,   2.781e-5
1.333,   2.808e-5
1.335,   2.821e-5
1.337,   2.834e-5
1.339,   2.858e-5
1.341,   2.886e-5
1.343,   2.901e-5
1.345,   2.932e-5
1.347,   2.956e-5
1.349,   2.979e-5
1.351,   3.007e-5
1.353,   3.032e-5
1.355,   3.059e-5
1.357,   3.101e-5
1.359,   3.134e-5
1.361,   3.165e-5
1.363,   3.203e-5
1.365,   3.254e-5
1.367,   3.284e-5
1.369,   3.320e-5
1.371,   3.376e-5
1.373,   3.431e-5
1.375,   3.480e-5
1.377,   3.539e-5
1.379,   3.603e-5
1.381,   3.663e-5
1.383,   3.734e-5
1.385,   3.789e-5
1.387,   3.861e-5
1.389,   3.961e-5
1.391,   4.043e-5
1.393,   4.125e-5
1.395,   4.226e-5
1.397,   4.336e-5
1.399,   4.444e-5
1.401,   4.574e-5
1.403,   4.705e-5
1.405,   4.851e-5
1.407,   5.016e-5
1.409,   5.188e-5
1.411,   5.370e-5
1.413,   5.578e-5
1.415,   5.808e-5
1.417,   6.049e-5
1.419,   6.319e-5
1.421,   6.622e-5
1.423,   6.938e-5
1.425,   7.292e-5
1.427,   7.710e-5
1.429,   8.134e-5
1.431,   8.586e-5
1.433,   9.093e-5
1.435,   9.654e-5
1.437,   1.026e-4
1.439,   1.093e-4
1.441,   1.166e-4
1.443,   1.244e-4
1.445,   1.332e-4
1.447,   1.426e-4
1.449,   1.527e-4
1.451,   1.638e-4
1.453,   1.759e-4
1.455,   1.889e-4
1.457,   2.029e-4
1.459,   2.182e-4
1.461,   2.347e-4
1.463,   2.523e-4
1.465,   2.715e-4
1.467,   2.923e-4
1.469,   3.145e-4
1.471,   3.383e-4
1.473,   3.640e-4
1.475,   3.913e-4
1.477,   4.209e-4
1.479,   4.521e-4
1.481,   4.855e-4
1.483,   5.208e-4
1.485,   5.582e-4
1.487,   5.992e-4
1.489,   6.418e-4
1.491,   6.870e-4
1.493,   7.343e-4
1.495,   7.849e-4
1.497,   8.374e-4
1.499,   8.938e-4
1.501,   9.522e-4
1.503,   1.014e-3
1.505,   1.079e-3
1.507,   1.146e-3
1.509,   1.217e-3
1.511,   1.292e-3
1.513,   1.369e-3
1.515,   1.449e-3
1.517,   1.531e-3
1.519,   1.616e-3
1.521,   1.703e-3
1.523,   1.797e-3
1.525,   1.893e-3
1.527,   1.991e-3
1.529,   2.090e-3
1.531,   2.195e-3
1.533,   2.301e-3
1.535,   2.405e-3
1.537,   2.519e-3
1.539,   2.632e-3
1.541,   2.745e-3
1.543,   2.895e-3
1.545,   3.028e-3
1.547,   3.163e-3
1.549,   3.299e-3
1.551,   3.435e-3
1.553,   3.578e-3
1.555,   3.707e-3
1.557,   3.857e-3
1.559,   4.003e-3
1.561,   4.148e-3
1.563,   4.308e-3
1.565,   4.455e-3
1.567,   4.612e-3
1.569,   4.795e-3
1.571,   4.965e-3
1.573,   5.153e-3
1.575,   5.325e-3
1.577,   5.496e-3
1.579,   5.690e-3
1.581,   5.868e-3
1.583,   6.025e-3
1.585,   6.241e-3
1.587,   6.446e-3
1.589,   6.632e-3
1.591,   6.856e-3
1.593,   7.051e-3
1.595,   7.255e-3
1.597,   7.440e-3
1.599,   7.691e-3
1.601,   7.935e-3
1.603,   8.135e-3
1.605,   8.343e-3
1.607,   8.550e-3
1.609,   8.822e-3
1.611,   9.097e-3
1.613,   9.300e-3
1.615,   9.510e-3
1.617,   9.750e-3
1.619,   1.001e-2
1.621,   1.007e-2
1.623,   1.007e-2
1.625,   1.007e-2
1.627,   1.007e-2
1.629,   1.007e-2
1.631,   1.007e-2
1.633,   1.007e-2
1.635,   1.007e-2
1.637,   1.007e-2
1.639,   1.007e-2
1.641,   1.007e-2
1.643,   1.007e-2
1.645,   1.007e-2
1.647,   1.007e-2
1.649,   1.007e-2
1.651,   1.007e-2
1.653,   1.007e-2
1.655,   1.007e-2
1.657,   1.007e-2
1.659,   1.007e-2
1.661,   1.007e-2
1.663,   1.007e-2
1.665,   1.007e-2
1.667,   1.007e-2
1.669,   1.007e-2
1.671,   1.007e-2
1.673,   1.007e-2
1.675,   1.007e-2
1.677,   1.007e-2
1.679,   1.007e-2
1.681,   1.007e-2
1.683,   1.007e-2
1.685,   1.007e-2
1.687,   1.007e-2
1.689,   1.007e-2
1.691,   1.007e-2
1.693,   1.007e-2
1.695,   1.007e-2
1.697,   1.007e-2
1.698,   1.007e-2