Folder: DASH/Experimental Records, Raw Data, and Supplementary Notes and Figures/batch2/final500 (part 2)

File: B2_VARIANCE_500#15_High_Quality-320mV.txt
Jan. 19, 2023   13:12:53
Linear Sweep Voltammetry
File: d:\current work\al_oer\electrochemical test data\batch 2\500\B2_VARIANCE_500#15_High_Quality-320mV.txt
Data Source:  Experiment
Instrument Model:  CHI660E
Header:
Note:

Init E (V) = 1.100

Final E (V) = 1.799

Scan Rate (V/s) = 0.010
Sample Interval (V) = 0.001
Quiet Time (sec) = 2
Sensitivity (A/V) = 0.001
Comp R (ohm) = 5.9

Results:

Channel 1:
Ep = 1.516V
ip = 7.054e-3A
Ah = 1.340e-1C

Potential/V, Current/A
1.100,   2.709e-5
1.103,   2.339e-5
1.106,   2.012e-5
1.109,   1.773e-5
1.112,   1.612e-5
1.115,   1.491e-5
1.118,   1.397e-5
1.121,   1.325e-5
1.124,   1.263e-5
1.127,   1.218e-5
1.130,   1.175e-5
1.133,   1.148e-5
1.136,   1.119e-5
1.139,   1.094e-5
1.142,   1.077e-5
1.145,   1.062e-5
1.148,   1.048e-5
1.151,   1.040e-5
1.154,   1.031e-5
1.157,   1.030e-5
1.160,   1.023e-5
1.163,   1.019e-5
1.166,   1.018e-5
1.169,   1.018e-5
1.172,   1.018e-5
1.175,   1.015e-5
1.178,   1.021e-5
1.181,   1.021e-5
1.184,   1.025e-5
1.187,   1.030e-5
1.190,   1.037e-5
1.193,   1.038e-5
1.196,   1.043e-5
1.199,   1.052e-5
1.202,   1.055e-5
1.205,   1.066e-5
1.208,   1.071e-5
1.211,   1.082e-5
1.214,   1.088e-5
1.217,   1.096e-5
1.220,   1.103e-5
1.223,   1.113e-5
1.226,   1.120e-5
1.229,   1.134e-5
1.232,   1.145e-5
1.235,   1.153e-5
1.238,   1.165e-5
1.241,   1.177e-5
1.244,   1.184e-5
1.247,   1.193e-5
1.250,   1.205e-5
1.253,   1.216e-5
1.256,   1.226e-5
1.259,   1.238e-5
1.262,   1.251e-5
1.265,   1.260e-5
1.268,   1.268e-5
1.271,   1.281e-5
1.274,   1.292e-5
1.277,   1.304e-5
1.280,   1.315e-5
1.283,   1.326e-5
1.286,   1.340e-5
1.289,   1.348e-5
1.292,   1.359e-5
1.295,   1.372e-5
1.298,   1.385e-5
1.301,   1.400e-5
1.304,   1.413e-5
1.307,   1.427e-5
1.310,   1.440e-5
1.313,   1.456e-5
1.316,   1.471e-5
1.319,   1.489e-5
1.322,   1.503e-5
1.325,   1.527e-5
1.328,   1.542e-5
1.331,   1.563e-5
1.334,   1.584e-5
1.337,   1.609e-5
1.340,   1.631e-5
1.343,   1.659e-5
1.346,   1.683e-5
1.349,   1.718e-5
1.352,   1.750e-5
1.355,   1.786e-5
1.358,   1.827e-5
1.361,   1.865e-5
1.364,   1.908e-5
1.367,   1.955e-5
1.370,   2.006e-5
1.373,   2.064e-5
1.376,   2.124e-5
1.379,   2.189e-5
1.382,   2.260e-5
1.385,   2.333e-5
1.388,   2.414e-5
1.391,   2.503e-5
1.394,   2.600e-5
1.397,   2.710e-5
1.400,   2.828e-5
1.403,   2.961e-5
1.406,   3.114e-5
1.409,   3.282e-5
1.412,   3.474e-5
1.415,   3.687e-5
1.418,   3.917e-5
1.421,   4.196e-5
1.424,   4.514e-5
1.427,   4.887e-5
1.430,   5.301e-5
1.433,   5.771e-5
1.436,   6.306e-5
1.439,   6.931e-5
1.442,   7.644e-5
1.445,   8.443e-5
1.448,   9.346e-5
1.451,   1.037e-4
1.454,   1.153e-4
1.457,   1.281e-4
1.460,   1.425e-4
1.463,   1.587e-4
1.466,   1.766e-4
1.469,   1.964e-4
1.472,   2.187e-4
1.475,   2.434e-4
1.478,   2.702e-4
1.481,   2.999e-4
1.484,   3.323e-4
1.487,   3.686e-4
1.490,   4.077e-4
1.493,   4.495e-4
1.496,   4.948e-4
1.499,   5.432e-4
1.502,   5.961e-4
1.505,   6.534e-4
1.508,   7.128e-4
1.511,   7.769e-4
1.514,   8.446e-4
1.517,   9.154e-4
1.520,   9.899e-4
1.523,   1.068e-3
1.526,   1.149e-3
1.529,   1.233e-3
1.532,   1.322e-3
1.535,   1.420e-3
1.538,   1.518e-3
1.541,   1.617e-3
1.544,   1.719e-3
1.547,   1.824e-3
1.550,   1.932e-3
1.553,   2.051e-3
1.556,   2.166e-3
1.559,   2.286e-3
1.562,   2.408e-3
1.565,   2.528e-3
1.568,   2.652e-3
1.571,   2.774e-3
1.574,   2.902e-3
1.577,   3.036e-3
1.580,   3.169e-3
1.583,   3.306e-3
1.586,   3.447e-3
1.589,   3.597e-3
1.592,   3.734e-3
1.595,   3.896e-3
1.598,   4.043e-3
1.601,   4.186e-3
1.604,   4.334e-3
1.607,   4.482e-3
1.610,   4.663e-3
1.613,   4.806e-3
1.616,   4.967e-3
1.619,   5.119e-3
1.622,   5.264e-3
1.625,   5.438e-3
1.628,   5.607e-3
1.631,   5.759e-3
1.634,   5.901e-3
1.637,   6.065e-3
1.640,   6.216e-3
1.643,   6.392e-3
1.646,   6.532e-3
1.649,   6.669e-3
1.652,   6.841e-3
1.655,   6.995e-3
1.658,   7.145e-3
1.661,   7.256e-3
1.664,   7.457e-3
1.667,   7.581e-3
1.670,   8.564e-3
1.673,   8.710e-3
1.676,   8.729e-3
1.679,   8.840e-3
1.682,   8.872e-3
1.685,   9.214e-3
1.688,   9.222e-3
1.691,   9.340e-3
1.694,   9.431e-3
1.697,   9.572e-3
1.700,   9.624e-3
1.703,   9.643e-3
1.706,   9.751e-3
1.709,   9.857e-3
1.712,   1.000e-2
1.715,   1.006e-2
1.718,   1.006e-2
1.721,   1.006e-2
1.724,   1.006e-2
1.727,   1.006e-2
1.730,   1.006e-2
1.733,   1.006e-2
1.736,   1.006e-2
1.739,   1.006e-2
1.742,   1.006e-2
1.745,   1.006e-2
1.748,   1.006e-2
1.751,   1.006e-2
1.754,   1.006e-2
1.757,   1.006e-2
1.760,   1.006e-2
1.763,   1.006e-2
1.766,   1.006e-2
1.769,   1.006e-2
1.772,   1.006e-2
1.775,   1.006e-2
1.778,   1.006e-2
1.781,   1.006e-2
1.784,   1.006e-2
1.787,   1.006e-2
1.790,   1.006e-2
1.793,   1.006e-2
1.796,   1.006e-2
1.799,   1.006e-2

File: B2_VARIANCE_500#18_High_Quality-337mV.txt
Jan. 19, 2023   14:22:09
Linear Sweep Voltammetry
File: d:\current work\al_oer\electrochemical test data\batch 2\500\B2_VARIANCE_500#18_High_Quality-337mV.txt
Data Source:  Experiment
Instrument Model:  CHI660E
Header:
Note:

Init E (V) = 1.099

Final E (V) = 1.798

Scan Rate (V/s) = 0.010
Sample Interval (V) = 0.001
Quiet Time (sec) = 2
Sensitivity (A/V) = 0.001
Comp R (ohm) = 5.5

Results:

Channel 1:

Potential/V, Current/A
1.099,   2.298e-5
1.102,   2.035e-5
1.105,   1.780e-5
1.108,   1.601e-5
1.111,   1.463e-5
1.114,   1.360e-5
1.117,   1.281e-5
1.120,   1.216e-5
1.123,   1.163e-5
1.126,   1.121e-5
1.129,   1.084e-5
1.132,   1.060e-5
1.135,   1.042e-5
1.138,   1.022e-5
1.141,   1.008e-5
1.144,   9.966e-6
1.147,   9.850e-6
1.150,   9.819e-6
1.153,   9.780e-6
1.156,   9.748e-6
1.159,   9.784e-6
1.162,   9.742e-6
1.165,   9.758e-6
1.168,   9.814e-6
1.171,   9.827e-6
1.174,   9.854e-6
1.177,   9.921e-6
1.180,   9.983e-6
1.183,   1.009e-5
1.186,   1.013e-5
1.189,   1.021e-5
1.192,   1.027e-5
1.195,   1.036e-5
1.198,   1.043e-5
1.201,   1.052e-5
1.204,   1.060e-5
1.207,   1.072e-5
1.210,   1.082e-5
1.213,   1.090e-5
1.216,   1.100e-5
1.219,   1.107e-5
1.222,   1.117e-5
1.225,   1.126e-5
1.228,   1.132e-5
1.231,   1.138e-5
1.234,   1.145e-5
1.237,   1.146e-5
1.240,   1.154e-5
1.243,   1.152e-5
1.246,   1.155e-5
1.249,   1.156e-5
1.252,   1.157e-5
1.255,   1.162e-5
1.258,   1.158e-5
1.261,   1.158e-5
1.264,   1.155e-5
1.267,   1.153e-5
1.270,   1.153e-5
1.273,   1.153e-5
1.276,   1.146e-5
1.279,   1.148e-5
1.282,   1.150e-5
1.285,   1.141e-5
1.288,   1.143e-5
1.291,   1.144e-5
1.294,   1.139e-5
1.297,   1.142e-5
1.300,   1.141e-5
1.303,   1.144e-5
1.306,   1.146e-5
1.309,   1.147e-5
1.312,   1.147e-5
1.315,   1.151e-5
1.318,   1.159e-5
1.321,   1.162e-5
1.324,   1.169e-5
1.327,   1.177e-5
1.330,   1.187e-5
1.333,   1.190e-5
1.336,   1.201e-5
1.339,   1.210e-5
1.342,   1.217e-5
1.345,   1.225e-5
1.348,   1.236e-5
1.351,   1.250e-5
1.354,   1.267e-5
1.357,   1.278e-5
1.360,   1.293e-5
1.363,   1.315e-5
1.366,   1.326e-5
1.369,   1.341e-5
1.372,   1.363e-5
1.375,   1.379e-5
1.378,   1.402e-5
1.381,   1.427e-5
1.384,   1.458e-5
1.387,   1.489e-5
1.390,   1.524e-5
1.393,   1.562e-5
1.396,   1.612e-5
1.399,   1.664e-5
1.402,   1.727e-5
1.405,   1.800e-5
1.408,   1.882e-5
1.411,   1.971e-5
1.414,   2.081e-5
1.417,   2.192e-5
1.420,   2.338e-5
1.423,   2.498e-5
1.426,   2.687e-5
1.429,   2.896e-5
1.432,   3.133e-5
1.435,   3.402e-5
1.438,   3.706e-5
1.441,   4.052e-5
1.444,   4.459e-5
1.447,   4.923e-5
1.450,   5.456e-5
1.453,   6.057e-5
1.456,   6.742e-5
1.459,   7.522e-5
1.462,   8.421e-5
1.465,   9.438e-5
1.468,   1.058e-4
1.471,   1.187e-4
1.474,   1.332e-4
1.477,   1.494e-4
1.480,   1.676e-4
1.483,   1.876e-4
1.486,   2.097e-4
1.489,   2.341e-4
1.492,   2.610e-4
1.495,   2.906e-4
1.498,   3.226e-4
1.501,   3.570e-4
1.504,   3.942e-4
1.507,   4.343e-4
1.510,   4.772e-4
1.513,   5.221e-4
1.516,   5.702e-4
1.519,   6.209e-4
1.522,   6.742e-4
1.525,   7.308e-4
1.528,   7.909e-4
1.531,   8.550e-4
1.534,   9.217e-4
1.537,   9.921e-4
1.540,   1.067e-3
1.543,   1.145e-3
1.546,   1.227e-3
1.549,   1.314e-3
1.552,   1.405e-3
1.555,   1.499e-3
1.558,   1.597e-3
1.561,   1.699e-3
1.564,   1.803e-3
1.567,   1.911e-3
1.570,   2.021e-3
1.573,   2.134e-3
1.576,   2.246e-3
1.579,   2.362e-3
1.582,   2.476e-3
1.585,   2.590e-3
1.588,   2.706e-3
1.591,   2.821e-3
1.594,   2.936e-3
1.597,   3.051e-3
1.600,   3.162e-3
1.603,   3.274e-3
1.606,   3.385e-3
1.609,   3.484e-3
1.612,   3.592e-3
1.615,   3.701e-3
1.618,   3.812e-3
1.621,   3.919e-3
1.624,   4.014e-3
1.627,   4.114e-3
1.630,   4.214e-3
1.633,   4.304e-3
1.636,   4.406e-3
1.639,   4.491e-3
1.642,   4.584e-3
1.645,   4.678e-3
1.648,   4.753e-3
1.651,   4.823e-3
1.654,   4.896e-3
1.657,   4.976e-3
1.660,   5.037e-3
1.663,   5.104e-3
1.666,   5.147e-3
1.669,   5.233e-3
1.672,   5.381e-3
1.675,   5.483e-3
1.678,   5.531e-3
1.681,   5.562e-3
1.684,   5.601e-3
1.687,   5.636e-3
1.690,   5.652e-3
1.693,   5.680e-3
1.696,   5.730e-3
1.699,   5.799e-3
1.702,   5.809e-3
1.705,   5.800e-3
1.708,   5.799e-3
1.711,   5.805e-3
1.714,   5.835e-3
1.717,   5.820e-3
1.720,   5.816e-3
1.723,   5.820e-3
1.726,   5.823e-3
1.729,   5.828e-3
1.732,   5.814e-3
1.735,   6.014e-3
1.738,   5.965e-3
1.741,   5.910e-3
1.744,   5.854e-3
1.747,   5.802e-3
1.750,   5.758e-3
1.753,   5.713e-3
1.756,   5.686e-3
1.759,   5.652e-3
1.762,   5.608e-3
1.765,   5.547e-3
1.768,   5.485e-3
1.771,   5.426e-3
1.774,   5.377e-3
1.777,   5.350e-3
1.780,   5.287e-3
1.783,   5.222e-3
1.786,   5.164e-3
1.789,   5.107e-3
1.792,   5.048e-3
1.795,   5.069e-3
1.798,   5.029e-3

File: B2_VARIANCE_500#19_High_Quality-247mV.txt
Jan. 19, 2023   14:46:47
Linear Sweep Voltammetry
File: d:\current work\al_oer\electrochemical test data\batch 2\500\B2_VARIANCE_500#19_High_Quality-247mV.txt
Data Source:  Experiment
Instrument Model:  CHI660E
Header:
Note:

Init E (V) = 1.100

Final E (V) = 1.727

Scan Rate (V/s) = 0.010
Sample Interval (V) = 0.001
Quiet Time (sec) = 2
Sensitivity (A/V) = 0.001
Comp R (ohm) = 5.9

Results:

Channel 1:
Ep = 1.361V
ip = 9.952e-3A
Ah = 1.022e-1C

Potential/V, Current/A
1.100,   2.660e-4
1.103,   2.239e-4
1.106,   1.911e-4
1.109,   1.669e-4
1.112,   1.484e-4
1.115,   1.341e-4
1.118,   1.226e-4
1.121,   1.133e-4
1.124,   1.055e-4
1.127,   9.917e-5
1.130,   9.385e-5
1.133,   8.936e-5
1.136,   8.544e-5
1.139,   8.208e-5
1.142,   7.925e-5
1.145,   7.675e-5
1.148,   7.447e-5
1.151,   7.269e-5
1.154,   7.107e-5
1.157,   6.962e-5
1.160,   6.840e-5
1.163,   6.736e-5
1.166,   6.646e-5
1.169,   6.564e-5
1.172,   6.495e-5
1.175,   6.426e-5
1.178,   6.373e-5
1.181,   6.327e-5
1.184,   6.283e-5
1.187,   6.252e-5
1.190,   6.231e-5
1.193,   6.203e-5
1.196,   6.180e-5
1.199,   6.165e-5
1.202,   6.149e-5
1.205,   6.148e-5
1.208,   6.141e-5
1.211,   6.135e-5
1.214,   6.134e-5
1.217,   6.133e-5
1.220,   6.133e-5
1.223,   6.141e-5
1.226,   6.155e-5
1.229,   6.160e-5
1.232,   6.167e-5
1.235,   6.177e-5
1.238,   6.186e-5
1.241,   6.188e-5
1.244,   6.201e-5
1.247,   6.212e-5
1.250,   6.230e-5
1.253,   6.248e-5
1.256,   6.264e-5
1.259,   6.285e-5
1.262,   6.306e-5
1.265,   6.327e-5
1.268,   6.347e-5
1.271,   6.355e-5
1.274,   6.378e-5
1.277,   6.393e-5
1.280,   6.420e-5
1.283,   6.439e-5
1.286,   6.462e-5
1.289,   6.479e-5
1.292,   6.498e-5
1.295,   6.529e-5
1.298,   6.557e-5
1.301,   6.589e-5
1.304,   6.626e-5
1.307,   6.657e-5
1.310,   6.689e-5
1.313,   6.714e-5
1.316,   6.746e-5
1.319,   6.777e-5
1.322,   6.820e-5
1.325,   6.870e-5
1.328,   6.914e-5
1.331,   6.962e-5
1.334,   7.010e-5
1.337,   7.063e-5
1.340,   7.121e-5
1.343,   7.184e-5
1.346,   7.263e-5
1.349,   7.351e-5
1.352,   7.436e-5
1.355,   7.527e-5
1.358,   7.641e-5
1.361,   7.754e-5
1.364,   7.888e-5
1.367,   8.025e-5
1.370,   8.175e-5
1.373,   8.369e-5
1.376,   8.590e-5
1.379,   8.860e-5
1.382,   9.158e-5
1.385,   9.524e-5
1.388,   9.978e-5
1.391,   1.050e-4
1.394,   1.114e-4
1.397,   1.191e-4
1.400,   1.280e-4
1.403,   1.388e-4
1.406,   1.515e-4
1.409,   1.664e-4
1.412,   1.835e-4
1.415,   2.042e-4
1.418,   2.302e-4
1.421,   2.577e-4
1.424,   2.886e-4
1.427,   3.231e-4
1.430,   3.664e-4
1.433,   4.122e-4
1.436,   4.599e-4
1.439,   5.207e-4
1.442,   5.804e-4
1.445,   6.519e-4
1.448,   7.219e-4
1.451,   8.060e-4
1.454,   8.971e-4
1.457,   9.925e-4
1.460,   1.105e-3
1.463,   1.223e-3
1.466,   1.354e-3
1.469,   1.492e-3
1.472,   1.634e-3
1.475,   1.798e-3
1.478,   1.977e-3
1.481,   2.160e-3
1.484,   2.363e-3
1.487,   2.579e-3
1.490,   2.790e-3
1.493,   3.025e-3
1.496,   3.280e-3
1.499,   3.542e-3
1.502,   3.799e-3
1.505,   4.080e-3
1.508,   4.354e-3
1.511,   4.680e-3
1.514,   4.985e-3
1.517,   5.311e-3
1.520,   5.611e-3
1.523,   5.933e-3
1.526,   6.262e-3
1.529,   6.603e-3
1.532,   6.934e-3
1.535,   7.271e-3
1.538,   7.613e-3
1.541,   7.947e-3
1.544,   8.261e-3
1.547,   8.665e-3
1.550,   9.007e-3
1.553,   9.348e-3
1.556,   9.675e-3
1.559,   1.005e-2
1.562,   1.006e-2
1.565,   1.006e-2
1.568,   1.006e-2
1.571,   1.006e-2
1.574,   1.006e-2
1.577,   1.006e-2
1.580,   1.006e-2
1.583,   1.006e-2
1.586,   1.006e-2
1.589,   1.006e-2
1.592,   1.006e-2
1.595,   1.006e-2
1.598,   1.006e-2
1.601,   1.006e-2
1.604,   1.006e-2
1.607,   1.006e-2
1.610,   1.006e-2
1.613,   1.006e-2
1.616,   1.006e-2
1.619,   1.006e-2
1.622,   1.006e-2
1.625,   1.006e-2
1.628,   1.006e-2
1.631,   1.006e-2
1.634,   1.006e-2
1.637,   1.006e-2
1.640,   1.006e-2
1.643,   1.006e-2
1.646,   1.006e-2
1.649,   1.006e-2
1.652,   1.006e-2
1.655,   1.006e-2
1.658,   1.006e-2
1.661,   1.006e-2
1.664,   1.006e-2
1.667,   1.006e-2
1.670,   1.006e-2
1.673,   1.006e-2
1.676,   1.006e-2
1.679,   1.006e-2
1.682,   1.006e-2
1.685,   1.006e-2
1.688,   1.006e-2
1.691,   1.006e-2
1.694,   1.006e-2
1.697,   1.006e-2
1.700,   1.006e-2
1.703,   1.006e-2
1.706,   1.006e-2
1.709,   1.006e-2
1.712,   1.006e-2
1.715,   1.006e-2
1.718,   1.006e-2
1.721,   1.006e-2
1.724,   1.006e-2
1.727,   1.006e-2