Folder: DASH/Experimental Records and Raw Data/batch4/final500 (part 3)

File: B4_VARIANCE_500_#3_Full(#11)-284mV.txt
Mar. 28, 2023   12:52:50
Linear Sweep Voltammetry
File: d:\current work\al_oer\electrochemical test data\batch 4\500\B4_VARIANCE_500_#3_Full(#11)-284mV.txt
Data Source:  Experiment
Instrument Model:  CHI660E
Header:
Note:

Init E (V) = 1.088

Final E (V) = 1.527

Scan Rate (V/s) = 0.010
Sample Interval (V) = 0.001
Quiet Time (sec) = 2
Sensitivity (A/V) = 0.001
Comp R (ohm) = 5.1

Results:

Channel 1:

Potential/V, Current/A
1.088,   2.697E-05
1.09,   2.472E-05
1.092,   2.228E-05
1.094,   2.040E-05
1.096,   1.897E-05
1.098,   1.776E-05
1.1,   1.681E-05
1.102,   1.599E-05
1.104,   1.530E-05
1.106,   1.472E-05
1.108,   1.424E-05
1.11,   1.384E-05
1.112,   1.342E-05
1.114,   1.313E-05
1.116,   1.285E-05
1.118,   1.260E-05
1.12,   1.243E-05
1.122,   1.221E-05
1.124,   1.207E-05
1.126,   1.192E-05
1.128,   1.179E-05
1.13,   1.170E-05
1.132,   1.163E-05
1.134,   1.156E-05
1.136,   1.147E-05
1.138,   1.140E-05
1.14,   1.137E-05
1.142,   1.134E-05
1.144,   1.130E-05
1.146,   1.130E-05
1.148,   1.127E-05
1.15,   1.123E-05
1.152,   1.120E-05
1.154,   1.127E-05
1.156,   1.122E-05
1.158,   1.126E-05
1.16,   1.127E-05
1.162,   1.129E-05
1.164,   1.132E-05
1.166,   1.134E-05
1.168,   1.137E-05
1.17,   1.139E-05
1.172,   1.143E-05
1.174,   1.148E-05
1.176,   1.151E-05
1.178,   1.154E-05
1.18,   1.159E-05
1.182,   1.165E-05
1.184,   1.170E-05
1.186,   1.174E-05
1.188,   1.182E-05
1.19,   1.189E-05
1.192,   1.197E-05
1.194,   1.203E-05
1.196,   1.212E-05
1.198,   1.218E-05
1.2,   1.228E-05
1.202,   1.237E-05
1.204,   1.248E-05
1.206,   1.253E-05
1.208,   1.263E-05
1.21,   1.274E-05
1.212,   1.285E-05
1.214,   1.293E-05
1.216,   1.307E-05
1.218,   1.319E-05
1.22,   1.327E-05
1.222,   1.338E-05
1.224,   1.348E-05
1.226,   1.361E-05
1.228,   1.370E-05
1.23,   1.380E-05
1.232,   1.390E-05
1.234,   1.404E-05
1.236,   1.410E-05
1.238,   1.421E-05
1.24,   1.429E-05
1.242,   1.443E-05
1.244,   1.449E-05
1.246,   1.459E-05
1.248,   1.469E-05
1.25,   1.483E-05
1.252,   1.494E-05
1.254,   1.504E-05
1.256,   1.519E-05
1.258,   1.533E-05
1.26,   1.545E-05
1.262,   1.557E-05
1.264,   1.576E-05
1.266,   1.590E-05
1.268,   1.602E-05
1.27,   1.615E-05
1.272,   1.629E-05
1.274,   1.646E-05
1.276,   1.665E-05
1.278,   1.681E-05
1.28,   1.700E-05
1.282,   1.720E-05
1.284,   1.739E-05
1.286,   1.758E-05
1.288,   1.780E-05
1.29,   1.801E-05
1.292,   1.825E-05
1.294,   1.844E-05
1.296,   1.874E-05
1.298,   1.896E-05
1.3,   1.922E-05
1.302,   1.944E-05
1.304,   1.973E-05
1.306,   2.008E-05
1.308,   2.044E-05
1.31,   2.072E-05
1.312,   2.110E-05
1.314,   2.152E-05
1.316,   2.191E-05
1.318,   2.227E-05
1.32,   2.268E-05
1.322,   2.320E-05
1.324,   2.364E-05
1.326,   2.415E-05
1.328,   2.462E-05
1.33,   2.523E-05
1.332,   2.584E-05
1.334,   2.644E-05
1.336,   2.710E-05
1.338,   2.786E-05
1.34,   2.862E-05
1.342,   2.941E-05
1.344,   3.025E-05
1.346,   3.119E-05
1.348,   3.221E-05
1.35,   3.326E-05
1.352,   3.445E-05
1.354,   3.571E-05
1.356,   3.708E-05
1.358,   3.851E-05
1.36,   4.005E-05
1.362,   4.187E-05
1.364,   4.377E-05
1.366,   4.596E-05
1.368,   4.836E-05
1.37,   5.107E-05
1.372,   5.406E-05
1.374,   5.747E-05
1.376,   6.126E-05
1.378,   6.561E-05
1.38,   7.055E-05
1.382,   7.622E-05
1.384,   8.285E-05
1.386,   9.022E-05
1.388,   9.867E-05
1.39,   1.084E-04
1.392,   1.197E-04
1.394,   1.328E-04
1.396,   1.475E-04
1.398,   1.641E-04
1.4,   1.823E-04
1.402,   2.017E-04
1.404,   2.212E-04
1.406,   2.404E-04
1.408,   2.577E-04
1.41,   2.717E-04
1.412,   2.830E-04
1.414,   2.930E-04
1.416,   3.037E-04
1.418,   3.172E-04
1.42,   3.343E-04
1.422,   3.548E-04
1.424,   3.794E-04
1.426,   4.086E-04
1.428,   4.417E-04
1.43,   4.788E-04
1.432,   5.197E-04
1.434,   5.631E-04
1.436,   6.102E-04
1.438,   6.603E-04
1.44,   7.129E-04
1.442,   7.679E-04
1.444,   8.250E-04
1.446,   8.831E-04
1.448,   9.420E-04
1.45,   1.003E-03
1.452,   1.065E-03
1.454,   1.127E-03
1.456,   1.188E-03
1.458,   1.250E-03
1.46,   1.313E-03
1.462,   1.374E-03
1.464,   1.434E-03
1.466,   1.495E-03
1.468,   1.554E-03
1.47,   1.612E-03
1.472,   1.666E-03
1.474,   1.719E-03
1.476,   1.770E-03
1.478,   1.817E-03
1.48,   1.859E-03
1.482,   1.892E-03
1.484,   1.917E-03
1.486,   1.931E-03
1.488,   1.938E-03
1.49,   1.937E-03
1.492,   1.932E-03
1.494,   1.928E-03
1.496,   1.927E-03
1.498,   1.926E-03
1.5,   1.928E-03
1.502,   1.933E-03
1.504,   1.938E-03
1.506,   1.946E-03
1.508,   1.952E-03
1.51,   1.958E-03
1.512,   1.963E-03
1.514,   1.963E-03
1.516,   1.964E-03
1.518,   1.961E-03
1.52,   1.958E-03
1.522,   1.956E-03
1.524,   1.948E-03
1.526,   1.943E-03
1.527,   1.940E-03

File: B4_VARIANCE_500_#5_High_Quality(#29)-270mV.txt
Mar. 29, 2023   12:58:20
Linear Sweep Voltammetry
File: d:\current work\al_oer\electrochemical test data\batch 4\500\B4_VARIANCE_500_#5_High_Quality(#29)-270mV.txt
Data Source:  Experiment
Instrument Model:  CHI660E
Header:
Note:

Init E (V) = 1.095

Final E (V) = 1.593

Scan Rate (V/s) = 0.010
Sample Interval (V) = 0.001
Quiet Time (sec) = 2
Sensitivity (A/V) = 0.001
Comp R (ohm) = 6.6

Results:

Channel 1:

Potential/V, Current/A
1.095,   5.486e-4
1.097,   4.827e-4
1.099,   4.262e-4
1.101,   3.805e-4
1.103,   3.440e-4
1.105,   3.134e-4
1.107,   2.876e-4
1.109,   2.670e-4
1.111,   2.492e-4
1.113,   2.340e-4
1.115,   2.212e-4
1.117,   2.097e-4
1.119,   2.003e-4
1.121,   1.920e-4
1.123,   1.845e-4
1.125,   1.777e-4
1.127,   1.715e-4
1.129,   1.667e-4
1.131,   1.620e-4
1.133,   1.580e-4
1.135,   1.538e-4
1.137,   1.506e-4
1.139,   1.477e-4
1.141,   1.450e-4
1.143,   1.424e-4
1.145,   1.402e-4
1.147,   1.383e-4
1.149,   1.364e-4
1.151,   1.346e-4
1.153,   1.331e-4
1.155,   1.318e-4
1.157,   1.304e-4
1.159,   1.293e-4
1.161,   1.283e-4
1.163,   1.274e-4
1.165,   1.260e-4
1.167,   1.254e-4
1.169,   1.249e-4
1.171,   1.242e-4
1.173,   1.239e-4
1.175,   1.234e-4
1.177,   1.231e-4
1.179,   1.228e-4
1.181,   1.227e-4
1.183,   1.224e-4
1.185,   1.224e-4
1.187,   1.224e-4
1.189,   1.222e-4
1.191,   1.221e-4
1.193,   1.222e-4
1.195,   1.222e-4
1.197,   1.223e-4
1.199,   1.222e-4
1.201,   1.223e-4
1.203,   1.224e-4
1.205,   1.225e-4
1.207,   1.225e-4
1.209,   1.227e-4
1.211,   1.228e-4
1.213,   1.228e-4
1.215,   1.230e-4
1.217,   1.232e-4
1.219,   1.232e-4
1.221,   1.235e-4
1.223,   1.233e-4
1.225,   1.236e-4
1.227,   1.235e-4
1.229,   1.237e-4
1.231,   1.239e-4
1.233,   1.239e-4
1.235,   1.241e-4
1.237,   1.239e-4
1.239,   1.239e-4
1.241,   1.241e-4
1.243,   1.241e-4
1.245,   1.242e-4
1.247,   1.242e-4
1.249,   1.244e-4
1.251,   1.243e-4
1.253,   1.243e-4
1.255,   1.244e-4
1.257,   1.246e-4
1.259,   1.246e-4
1.261,   1.245e-4
1.263,   1.248e-4
1.265,   1.250e-4
1.267,   1.251e-4
1.269,   1.251e-4
1.271,   1.252e-4
1.273,   1.250e-4
1.275,   1.251e-4
1.277,   1.250e-4
1.279,   1.254e-4
1.281,   1.261e-4
1.283,   1.262e-4
1.285,   1.261e-4
1.287,   1.261e-4
1.289,   1.260e-4
1.291,   1.252e-4
1.293,   1.253e-4
1.295,   1.255e-4
1.297,   1.256e-4
1.299,   1.257e-4
1.301,   1.257e-4
1.303,   1.259e-4
1.305,   1.262e-4
1.307,   1.263e-4
1.309,   1.264e-4
1.311,   1.265e-4
1.313,   1.268e-4
1.315,   1.271e-4
1.317,   1.272e-4
1.319,   1.274e-4
1.321,   1.280e-4
1.323,   1.282e-4
1.325,   1.283e-4
1.327,   1.288e-4
1.329,   1.291e-4
1.331,   1.295e-4
1.333,   1.299e-4
1.335,   1.303e-4
1.337,   1.309e-4
1.339,   1.317e-4
1.341,   1.322e-4
1.343,   1.328e-4
1.345,   1.333e-4
1.347,   1.339e-4
1.349,   1.347e-4
1.351,   1.353e-4
1.353,   1.361e-4
1.355,   1.369e-4
1.357,   1.376e-4
1.359,   1.389e-4
1.361,   1.398e-4
1.363,   1.409e-4
1.365,   1.420e-4
1.367,   1.432e-4
1.369,   1.448e-4
1.371,   1.464e-4
1.373,   1.479e-4
1.375,   1.496e-4
1.377,   1.512e-4
1.379,   1.532e-4
1.381,   1.551e-4
1.383,   1.574e-4
1.385,   1.600e-4
1.387,   1.624e-4
1.389,   1.651e-4
1.391,   1.687e-4
1.393,   1.727e-4
1.395,   1.761e-4
1.397,   1.798e-4
1.399,   1.837e-4
1.401,   1.882e-4
1.403,   1.928e-4
1.405,   1.982e-4
1.407,   2.040e-4
1.409,   2.100e-4
1.411,   2.170e-4
1.413,   2.241e-4
1.415,   2.319e-4
1.417,   2.406e-4
1.419,   2.500e-4
1.421,   2.603e-4
1.423,   2.712e-4
1.425,   2.827e-4
1.427,   2.952e-4
1.429,   3.089e-4
1.431,   3.236e-4
1.433,   3.392e-4
1.435,   3.559e-4
1.437,   3.737e-4
1.439,   3.929e-4
1.441,   4.134e-4
1.443,   4.355e-4
1.445,   4.589e-4
1.447,   4.836e-4
1.449,   5.099e-4
1.451,   5.382e-4
1.453,   5.675e-4
1.455,   5.986e-4
1.457,   6.321e-4
1.459,   6.675e-4
1.461,   7.045e-4
1.463,   7.440e-4
1.465,   7.861e-4
1.467,   8.297e-4
1.469,   8.765e-4
1.471,   9.258e-4
1.473,   9.768e-4
1.475,   1.030e-3
1.477,   1.088e-3
1.479,   1.146e-3
1.481,   1.209e-3
1.483,   1.273e-3
1.485,   1.340e-3
1.487,   1.410e-3
1.489,   1.483e-3
1.491,   1.558e-3
1.493,   1.635e-3
1.495,   1.716e-3
1.497,   1.797e-3
1.499,   1.877e-3
1.501,   1.964e-3
1.503,   2.054e-3
1.505,   2.145e-3
1.507,   2.236e-3
1.509,   2.333e-3
1.511,   2.427e-3
1.513,   2.525e-3
1.515,   2.624e-3
1.517,   2.724e-3
1.519,   2.828e-3
1.521,   2.931e-3
1.523,   3.028e-3
1.525,   3.138e-3
1.527,   3.242e-3
1.529,   3.352e-3
1.531,   3.461e-3
1.533,   3.570e-3
1.535,   3.678e-3
1.537,   3.784e-3
1.539,   3.866e-3
1.541,   3.973e-3
1.543,   4.082e-3
1.545,   4.185e-3
1.547,   4.295e-3
1.549,   4.402e-3
1.551,   4.507e-3
1.553,   4.616e-3
1.555,   4.710e-3
1.557,   4.828e-3
1.559,   4.939e-3
1.561,   5.046e-3
1.563,   5.153e-3
1.565,   5.175e-3
1.567,   5.268e-3
1.569,   5.366e-3
1.571,   5.485e-3
1.573,   5.599e-3
1.575,   5.607e-3
1.577,   5.677e-3
1.579,   5.781e-3
1.581,   5.534e-3
1.583,   5.599e-3
1.585,   5.695e-3
1.587,   5.805e-3
1.589,   5.903e-3
1.591,   5.994e-3
1.593,   6.087e-3

File: B4_VARIANCE_500_#6_High_Quality(#30)-329mV.txt
Mar. 28, 2023   12:12:09
Linear Sweep Voltammetry
File: d:\current work\al_oer\electrochemical test data\batch 4\500\B4_VARIANCE_500_#6_High_Quality(#30)-329mV.txt
Data Source:  Experiment
Instrument Model:  CHI660E
Header:
Note:

Init E (V) = 1.101

Final E (V) = 1.582

Scan Rate (V/s) = 0.010
Sample Interval (V) = 0.001
Quiet Time (sec) = 2
Sensitivity (A/V) = 0.001
Comp R (ohm) = 5.0

Results:

Channel 1:
Ep = 1.237V
ip = 3.746e-4A
Ah = 1.487e-3C

Potential/V, Current/A
1.101,   1.246E-04
1.103,   1.164E-04
1.105,   1.084E-04
1.107,   1.013E-04
1.109,   9.575E-05
1.111,   9.102E-05
1.113,   8.693E-05
1.115,   8.317E-05
1.117,   8.028E-05
1.119,   7.803E-05
1.121,   7.596E-05
1.123,   7.390E-05
1.125,   7.211E-05
1.127,   7.050E-05
1.129,   6.908E-05
1.131,   6.770E-05
1.133,   6.651E-05
1.135,   6.527E-05
1.137,   6.458E-05
1.139,   6.366E-05
1.141,   6.261E-05
1.143,   6.196E-05
1.145,   6.137E-05
1.147,   6.077E-05
1.149,   6.008E-05
1.151,   5.994E-05
1.153,   5.930E-05
1.155,   5.866E-05
1.157,   5.843E-05
1.159,   5.797E-05
1.161,   5.788E-05
1.163,   5.760E-05
1.165,   5.719E-05
1.167,   5.692E-05
1.169,   5.664E-05
1.171,   5.659E-05
1.173,   5.641E-05
1.175,   5.623E-05
1.177,   5.595E-05
1.179,   5.595E-05
1.181,   5.568E-05
1.183,   5.572E-05
1.185,   5.558E-05
1.187,   5.545E-05
1.189,   5.545E-05
1.191,   5.535E-05
1.193,   5.549E-05
1.195,   5.535E-05
1.197,   5.563E-05
1.199,   5.577E-05
1.201,   5.558E-05
1.203,   5.572E-05
1.205,   5.577E-05
1.207,   5.568E-05
1.209,   5.581E-05
1.211,   5.581E-05
1.213,   5.609E-05
1.215,   5.618E-05
1.217,   5.636E-05
1.219,   5.673E-05
1.221,   5.673E-05
1.223,   5.692E-05
1.225,   5.705E-05
1.227,   5.724E-05
1.229,   5.710E-05
1.231,   5.742E-05
1.233,   5.760E-05
1.235,   5.802E-05
1.237,   5.774E-05
1.239,   5.815E-05
1.241,   5.843E-05
1.243,   5.866E-05
1.245,   5.898E-05
1.247,   5.930E-05
1.249,   5.949E-05
1.251,   5.990E-05
1.253,   6.013E-05
1.255,   6.040E-05
1.257,   6.086E-05
1.259,   6.128E-05
1.261,   6.160E-05
1.263,   6.187E-05
1.265,   6.210E-05
1.267,   6.238E-05
1.269,   6.311E-05
1.271,   6.334E-05
1.273,   6.362E-05
1.275,   6.412E-05
1.277,   6.458E-05
1.279,   6.509E-05
1.281,   6.564E-05
1.283,   6.628E-05
1.285,   6.651E-05
1.287,   6.697E-05
1.289,   6.766E-05
1.291,   6.825E-05
1.293,   6.876E-05
1.295,   6.940E-05
1.297,   7.013E-05
1.299,   7.064E-05
1.301,   7.128E-05
1.303,   7.179E-05
1.305,   7.238E-05
1.307,   7.390E-05
1.309,   7.495E-05
1.311,   7.550E-05
1.313,   7.642E-05
1.315,   7.670E-05
1.317,   7.716E-05
1.319,   7.798E-05
1.321,   7.895E-05
1.323,   7.954E-05
1.325,   8.042E-05
1.327,   8.166E-05
1.329,   8.285E-05
1.331,   8.404E-05
1.333,   8.510E-05
1.335,   8.638E-05
1.337,   8.799E-05
1.339,   8.904E-05
1.341,   9.038E-05
1.343,   9.157E-05
1.345,   9.267E-05
1.347,   9.423E-05
1.349,   9.621E-05
1.351,   9.758E-05
1.353,   9.864E-05
1.355,   1.004E-04
1.357,   1.023E-04
1.359,   1.033E-04
1.361,   1.052E-04
1.363,   1.079E-04
1.365,   1.103E-04
1.367,   1.125E-04
1.369,   1.151E-04
1.371,   1.173E-04
1.373,   1.198E-04
1.375,   1.228E-04
1.377,   1.258E-04
1.379,   1.299E-04
1.381,   1.344E-04
1.383,   1.389E-04
1.385,   1.438E-04
1.387,   1.493E-04
1.389,   1.555E-04
1.391,   1.627E-04
1.393,   1.707E-04
1.395,   1.801E-04
1.397,   1.907E-04
1.399,   2.022E-04
1.401,   2.165E-04
1.403,   2.329E-04
1.405,   2.519E-04
1.407,   2.760E-04
1.409,   3.052E-04
1.411,   3.412E-04
1.413,   3.875E-04
1.415,   4.461E-04
1.417,   5.210E-04
1.419,   6.192E-04
1.421,   7.417E-04
1.423,   8.900E-04
1.425,   1.059E-03
1.427,   1.241E-03
1.429,   1.417E-03
1.431,   1.572E-03
1.433,   1.690E-03
1.435,   1.756E-03
1.437,   1.776E-03
1.439,   1.752E-03
1.441,   1.694E-03
1.443,   1.617E-03
1.445,   1.527E-03
1.447,   1.436E-03
1.449,   1.358E-03
1.451,   1.280E-03
1.453,   1.220E-03
1.455,   1.172E-03
1.457,   1.134E-03
1.459,   1.103E-03
1.461,   1.086E-03
1.463,   1.074E-03
1.465,   1.069E-03
1.467,   1.072E-03
1.469,   1.082E-03
1.471,   1.088E-03
1.473,   1.097E-03
1.475,   1.113E-03
1.477,   1.132E-03
1.479,   1.154E-03
1.481,   1.175E-03
1.483,   1.196E-03
1.485,   1.223E-03
1.487,   1.252E-03
1.489,   1.280E-03
1.491,   1.305E-03
1.493,   1.334E-03
1.495,   1.363E-03
1.497,   1.389E-03
1.499,   1.421E-03
1.501,   1.455E-03
1.503,   1.484E-03
1.505,   1.511E-03
1.507,   1.540E-03
1.509,   1.572E-03
1.511,   1.596E-03
1.513,   1.624E-03
1.515,   1.650E-03
1.517,   1.677E-03
1.519,   1.706E-03
1.521,   1.734E-03
1.523,   1.764E-03
1.525,   1.786E-03
1.527,   1.813E-03
1.529,   1.837E-03
1.531,   1.859E-03
1.533,   1.877E-03
1.535,   1.895E-03
1.537,   1.911E-03
1.539,   1.926E-03
1.541,   1.932E-03
1.543,   1.942E-03
1.545,   1.948E-03
1.547,   1.951E-03
1.549,   1.953E-03
1.551,   1.959E-03
1.553,   1.961E-03
1.555,   1.964E-03
1.557,   1.970E-03
1.559,   1.972E-03
1.561,   1.970E-03
1.563,   1.967E-03
1.565,   1.967E-03
1.567,   1.965E-03
1.569,   1.960E-03
1.571,   1.959E-03
1.573,   1.954E-03
1.575,   1.950E-03
1.577,   1.946E-03
1.579,   1.940E-03
1.581,   1.935E-03
1.582,   1.936E-03

File: B4_VARIANCE_500_#7_High_Quality(#31)-316mV.txt
Mar. 28, 2023   12:28:29
Linear Sweep Voltammetry
File: d:\current work\al_oer\electrochemical test data\batch 4\500\B4_VARIANCE_500_#7_High_Quality(#31)-316mV.txt
Data Source:  Experiment
Instrument Model:  CHI660E
Header:
Note:

Init E (V) = 1.096

Final E (V) = 1.667

Scan Rate (V/s) = 0.010
Sample Interval (V) = 0.001
Quiet Time (sec) = 2
Sensitivity (A/V) = 0.001
Comp R (ohm) = 5.4

Results:

Channel 1:
Ep = 1.308V
ip = 2.159e-3A
Ah = 2.582e-2C

Potential/V, Current/A
1.096,   1.594e-4
1.098,   1.420e-4
1.100,   1.275e-4
1.102,   1.162e-4
1.104,   1.071e-4
1.106,   9.983e-5
1.108,   9.338e-5
1.110,   8.840e-5
1.112,   8.423e-5
1.114,   8.060e-5
1.116,   7.734e-5
1.118,   7.471e-5
1.120,   7.218e-5
1.122,   6.997e-5
1.124,   6.808e-5
1.126,   6.644e-5
1.128,   6.480e-5
1.130,   6.364e-5
1.132,   6.250e-5
1.134,   6.145e-5
1.136,   6.051e-5
1.138,   5.972e-5
1.140,   5.891e-5
1.142,   5.812e-5
1.144,   5.759e-5
1.146,   5.702e-5
1.148,   5.645e-5
1.150,   5.589e-5
1.152,   5.540e-5
1.154,   5.499e-5
1.156,   5.467e-5
1.158,   5.438e-5
1.160,   5.414e-5
1.162,   5.394e-5
1.164,   5.393e-5
1.166,   5.366e-5
1.168,   5.354e-5
1.170,   5.336e-5
1.172,   5.338e-5
1.174,   5.331e-5
1.176,   5.329e-5
1.178,   5.340e-5
1.180,   5.353e-5
1.182,   5.355e-5
1.184,   5.357e-5
1.186,   5.360e-5
1.188,   5.359e-5
1.190,   5.366e-5
1.192,   5.366e-5
1.194,   5.380e-5
1.196,   5.387e-5
1.198,   5.397e-5
1.200,   5.404e-5
1.202,   5.412e-5
1.204,   5.428e-5
1.206,   5.435e-5
1.208,   5.448e-5
1.210,   5.467e-5
1.212,   5.482e-5
1.214,   5.511e-5
1.216,   5.530e-5
1.218,   5.555e-5
1.220,   5.578e-5
1.222,   5.592e-5
1.224,   5.610e-5
1.226,   5.635e-5
1.228,   5.660e-5
1.230,   5.673e-5
1.232,   5.681e-5
1.234,   5.699e-5
1.236,   5.726e-5
1.238,   5.757e-5
1.240,   5.773e-5
1.242,   5.787e-5
1.244,   5.801e-5
1.246,   5.819e-5
1.248,   5.850e-5
1.250,   5.873e-5
1.252,   5.911e-5
1.254,   5.934e-5
1.256,   5.953e-5
1.258,   5.974e-5
1.260,   5.990e-5
1.262,   6.029e-5
1.264,   6.061e-5
1.266,   6.101e-5
1.268,   6.106e-5
1.270,   6.133e-5
1.272,   6.155e-5
1.274,   6.179e-5
1.276,   6.219e-5
1.278,   6.254e-5
1.280,   6.300e-5
1.282,   6.368e-5
1.284,   6.423e-5
1.286,   6.444e-5
1.288,   6.474e-5
1.290,   6.529e-5
1.292,   6.582e-5
1.294,   6.614e-5
1.296,   6.663e-5
1.298,   6.716e-5
1.300,   6.784e-5
1.302,   6.829e-5
1.304,   6.890e-5
1.306,   6.954e-5
1.308,   7.018e-5
1.310,   7.080e-5
1.312,   7.153e-5
1.314,   7.237e-5
1.316,   7.304e-5
1.318,   7.391e-5
1.320,   7.467e-5
1.322,   7.609e-5
1.324,   7.701e-5
1.326,   7.775e-5
1.328,   7.860e-5
1.330,   7.954e-5
1.332,   8.035e-5
1.334,   8.140e-5
1.336,   8.233e-5
1.338,   8.367e-5
1.340,   8.500e-5
1.342,   8.637e-5
1.344,   8.796e-5
1.346,   8.945e-5
1.348,   9.074e-5
1.350,   9.243e-5
1.352,   9.406e-5
1.354,   9.580e-5
1.356,   9.775e-5
1.358,   9.974e-5
1.360,   1.020e-4
1.362,   1.042e-4
1.364,   1.068e-4
1.366,   1.096e-4
1.368,   1.126e-4
1.370,   1.159e-4
1.372,   1.198e-4
1.374,   1.231e-4
1.376,   1.272e-4
1.378,   1.315e-4
1.380,   1.366e-4
1.382,   1.421e-4
1.384,   1.481e-4
1.386,   1.552e-4
1.388,   1.628e-4
1.390,   1.711e-4
1.392,   1.804e-4
1.394,   1.907e-4
1.396,   2.023e-4
1.398,   2.153e-4
1.400,   2.293e-4
1.402,   2.452e-4
1.404,   2.628e-4
1.406,   2.823e-4
1.408,   3.031e-4
1.410,   3.261e-4
1.412,   3.513e-4
1.414,   3.782e-4
1.416,   4.082e-4
1.418,   4.402e-4
1.420,   4.744e-4
1.422,   5.109e-4
1.424,   5.503e-4
1.426,   5.925e-4
1.428,   6.361e-4
1.430,   6.821e-4
1.432,   7.311e-4
1.434,   7.825e-4
1.436,   8.354e-4
1.438,   8.915e-4
1.440,   9.478e-4
1.442,   1.006e-3
1.444,   1.067e-3
1.446,   1.129e-3
1.448,   1.191e-3
1.450,   1.255e-3
1.452,   1.317e-3
1.454,   1.381e-3
1.456,   1.445e-3
1.458,   1.507e-3
1.460,   1.568e-3
1.462,   1.631e-3
1.464,   1.689e-3
1.466,   1.746e-3
1.468,   1.802e-3
1.470,   1.855e-3
1.472,   1.905e-3
1.474,   1.951e-3
1.476,   1.993e-3
1.478,   2.033e-3
1.480,   2.069e-3
1.482,   2.104e-3
1.484,   2.133e-3
1.486,   2.160e-3
1.488,   2.180e-3
1.490,   2.200e-3
1.492,   2.216e-3
1.494,   2.225e-3
1.496,   2.233e-3
1.498,   2.241e-3
1.500,   2.245e-3
1.502,   2.246e-3
1.504,   2.246e-3
1.506,   2.239e-3
1.508,   2.234e-3
1.510,   2.228e-3
1.512,   2.219e-3
1.514,   2.210e-3
1.516,   2.197e-3
1.518,   2.186e-3
1.520,   2.172e-3
1.522,   2.158e-3
1.524,   2.143e-3
1.526,   2.125e-3
1.528,   2.109e-3
1.530,   2.095e-3
1.532,   2.080e-3
1.534,   2.065e-3
1.536,   2.050e-3
1.538,   2.032e-3
1.540,   2.017e-3
1.542,   2.000e-3
1.544,   1.989e-3
1.546,   1.973e-3
1.548,   1.956e-3
1.550,   1.940e-3
1.552,   1.927e-3
1.554,   1.914e-3
1.556,   1.901e-3
1.558,   1.889e-3
1.560,   1.876e-3
1.562,   1.860e-3
1.564,   1.847e-3
1.566,   1.833e-3
1.568,   1.823e-3
1.570,   1.810e-3
1.572,   1.796e-3
1.574,   1.784e-3
1.576,   1.774e-3
1.578,   1.763e-3
1.580,   1.752e-3
1.582,   1.743e-3
1.584,   1.733e-3
1.586,   1.724e-3
1.588,   1.714e-3
1.590,   1.705e-3
1.592,   1.697e-3
1.594,   1.688e-3
1.596,   1.676e-3
1.598,   1.666e-3
1.600,   1.656e-3
1.602,   1.646e-3
1.604,   1.639e-3
1.606,   1.630e-3
1.608,   1.621e-3
1.610,   1.613e-3
1.612,   1.607e-3
1.614,   1.601e-3
1.616,   1.591e-3
1.618,   1.581e-3
1.620,   1.574e-3
1.622,   1.569e-3
1.624,   1.560e-3
1.626,   1.552e-3
1.628,   1.545e-3
1.630,   1.537e-3
1.632,   1.531e-3
1.634,   1.523e-3
1.636,   1.515e-3
1.638,   1.505e-3
1.640,   1.496e-3
1.642,   1.491e-3
1.644,   1.485e-3
1.646,   1.478e-3
1.648,   1.475e-3
1.650,   1.467e-3
1.652,   1.455e-3
1.654,   1.448e-3
1.656,   1.441e-3
1.658,   1.435e-3
1.660,   1.429e-3
1.662,   1.423e-3
1.664,   1.417e-3
1.666,   1.408e-3
1.667,   1.405e-3

File: B4_VARIANCE_500_#8_Full(#16)-363mV.txt
Mar. 28, 2023   13:52:42
Linear Sweep Voltammetry
File: d:\current work\al_oer\electrochemical test data\batch 4\500\B4_VARIANCE_500_#8_Full(#16)-363mV.txt
Data Source:  Experiment
Instrument Model:  CHI660E
Header:
Note:

Init E (V) = 1.104

Final E (V) = 1.619

Scan Rate (V/s) = 0.010
Sample Interval (V) = 0.001
Quiet Time (sec) = 2
Sensitivity (A/V) = 0.001
Comp R (ohm) = 4.7

Results:

Channel 1:

Potential/V, Current/A
1.104,   3.594E-04
1.106,   3.241E-04
1.108,   2.952E-04
1.11,   2.707E-04
1.112,   2.513E-04
1.114,   2.349E-04
1.116,   2.217E-04
1.118,   2.107E-04
1.12,   2.013E-04
1.122,   1.935E-04
1.124,   1.865E-04
1.126,   1.800E-04
1.128,   1.750E-04
1.13,   1.702E-04
1.132,   1.662E-04
1.134,   1.625E-04
1.136,   1.590E-04
1.138,   1.564E-04
1.14,   1.540E-04
1.142,   1.514E-04
1.144,   1.492E-04
1.146,   1.475E-04
1.148,   1.457E-04
1.15,   1.443E-04
1.152,   1.429E-04
1.154,   1.415E-04
1.156,   1.404E-04
1.158,   1.392E-04
1.16,   1.384E-04
1.162,   1.375E-04
1.164,   1.368E-04
1.166,   1.360E-04
1.168,   1.349E-04
1.17,   1.347E-04
1.172,   1.341E-04
1.174,   1.334E-04
1.176,   1.332E-04
1.178,   1.326E-04
1.18,   1.323E-04
1.182,   1.318E-04
1.184,   1.315E-04
1.186,   1.313E-04
1.188,   1.312E-04
1.19,   1.309E-04
1.192,   1.307E-04
1.194,   1.309E-04
1.196,   1.305E-04
1.198,   1.303E-04
1.2,   1.302E-04
1.202,   1.304E-04
1.204,   1.305E-04
1.206,   1.308E-04
1.208,   1.303E-04
1.21,   1.304E-04
1.212,   1.305E-04
1.214,   1.306E-04
1.216,   1.309E-04
1.218,   1.311E-04
1.22,   1.312E-04
1.222,   1.314E-04
1.224,   1.316E-04
1.226,   1.318E-04
1.228,   1.324E-04
1.23,   1.327E-04
1.232,   1.331E-04
1.234,   1.336E-04
1.236,   1.339E-04
1.238,   1.343E-04
1.24,   1.351E-04
1.242,   1.353E-04
1.244,   1.357E-04
1.246,   1.365E-04
1.248,   1.368E-04
1.25,   1.378E-04
1.252,   1.384E-04
1.254,   1.393E-04
1.256,   1.393E-04
1.258,   1.403E-04
1.26,   1.409E-04
1.262,   1.416E-04
1.264,   1.423E-04
1.266,   1.430E-04
1.268,   1.439E-04
1.27,   1.448E-04
1.272,   1.462E-04
1.274,   1.467E-04
1.276,   1.476E-04
1.278,   1.488E-04
1.28,   1.494E-04
1.282,   1.506E-04
1.284,   1.515E-04
1.286,   1.524E-04
1.288,   1.535E-04
1.29,   1.552E-04
1.292,   1.563E-04
1.294,   1.575E-04
1.296,   1.586E-04
1.298,   1.600E-04
1.3,   1.615E-04
1.302,   1.632E-04
1.304,   1.646E-04
1.306,   1.658E-04
1.308,   1.672E-04
1.31,   1.685E-04
1.312,   1.702E-04
1.314,   1.718E-04
1.316,   1.735E-04
1.318,   1.751E-04
1.32,   1.765E-04
1.322,   1.783E-04
1.324,   1.800E-04
1.326,   1.817E-04
1.328,   1.839E-04
1.33,   1.858E-04
1.332,   1.875E-04
1.334,   1.897E-04
1.336,   1.918E-04
1.338,   1.934E-04
1.34,   1.956E-04
1.342,   1.980E-04
1.344,   2.001E-04
1.346,   2.020E-04
1.348,   2.043E-04
1.35,   2.066E-04
1.352,   2.090E-04
1.354,   2.115E-04
1.356,   2.141E-04
1.358,   2.172E-04
1.36,   2.203E-04
1.362,   2.239E-04
1.364,   2.274E-04
1.366,   2.308E-04
1.368,   2.350E-04
1.37,   2.386E-04
1.372,   2.435E-04
1.374,   2.489E-04
1.376,   2.544E-04
1.378,   2.597E-04
1.38,   2.654E-04
1.382,   2.718E-04
1.384,   2.791E-04
1.386,   2.861E-04
1.388,   2.945E-04
1.39,   3.027E-04
1.392,   3.126E-04
1.394,   3.226E-04
1.396,   3.334E-04
1.398,   3.447E-04
1.4,   3.579E-04
1.402,   3.711E-04
1.404,   3.866E-04
1.406,   4.032E-04
1.408,   4.191E-04
1.41,   4.372E-04
1.412,   4.565E-04
1.414,   4.753E-04
1.416,   4.961E-04
1.418,   5.187E-04
1.42,   5.416E-04
1.422,   5.645E-04
1.424,   5.879E-04
1.426,   6.129E-04
1.428,   6.368E-04
1.43,   6.597E-04
1.432,   6.826E-04
1.434,   7.055E-04
1.436,   7.267E-04
1.438,   7.501E-04
1.44,   7.693E-04
1.442,   7.900E-04
1.444,   8.076E-04
1.446,   8.246E-04
1.448,   8.401E-04
1.45,   8.534E-04
1.452,   8.651E-04
1.454,   8.736E-04
1.456,   8.821E-04
1.458,   8.879E-04
1.46,   8.927E-04
1.462,   8.991E-04
1.464,   9.044E-04
1.466,   9.082E-04
1.468,   9.135E-04
1.47,   9.220E-04
1.472,   9.326E-04
1.474,   9.465E-04
1.476,   9.560E-04
1.478,   9.656E-04
1.48,   9.805E-04
1.482,   9.991E-04
1.484,   1.013E-03
1.486,   1.034E-03
1.488,   1.059E-03
1.49,   1.082E-03
1.492,   1.106E-03
1.494,   1.130E-03
1.496,   1.152E-03
1.498,   1.172E-03
1.5,   1.194E-03
1.502,   1.217E-03
1.504,   1.238E-03
1.506,   1.263E-03
1.508,   1.285E-03
1.51,   1.311E-03
1.512,   1.335E-03
1.514,   1.362E-03
1.516,   1.405E-03
1.518,   1.441E-03
1.52,   1.480E-03
1.522,   1.529E-03
1.524,   1.577E-03
1.526,   1.627E-03
1.528,   1.677E-03
1.53,   1.714E-03
1.532,   1.748E-03
1.534,   1.783E-03
1.536,   1.815E-03
1.538,   1.835E-03
1.54,   1.861E-03
1.542,   1.883E-03
1.544,   1.897E-03
1.546,   1.905E-03
1.548,   1.919E-03
1.55,   1.929E-03
1.552,   1.930E-03
1.554,   1.920E-03
1.556,   1.936E-03
1.558,   1.935E-03
1.56,   1.940E-03
1.562,   1.961E-03
1.564,   1.945E-03
1.566,   1.956E-03
1.568,   1.950E-03
1.57,   1.947E-03
1.572,   1.956E-03
1.574,   1.962E-03
1.576,   1.950E-03
1.578,   1.945E-03
1.58,   1.956E-03
1.582,   1.957E-03
1.584,   1.956E-03
1.586,   1.960E-03
1.588,   1.963E-03
1.59,   1.959E-03
1.592,   1.965E-03
1.594,   1.973E-03
1.596,   1.959E-03
1.598,   1.956E-03
1.6,   1.944E-03
1.602,   1.942E-03
1.604,   1.937E-03
1.606,   1.937E-03
1.608,   1.939E-03
1.61,   1.935E-03
1.612,   1.927E-03
1.614,   1.923E-03
1.616,   1.916E-03
1.618,   1.909E-03
1.619,   1.904E-03