Folder: DASH/Experimental Records and Raw Data/batch4/final500

Note: README.md
# DASH
This is the online repository that stores code, data and supplementary figures of the research work: <Leveraging Data Mining, Active Learning, and Domain Adaptation in a Multi-Stage, Machine Learning-Driven Approach for the Efficient Discovery of Advanced Acidic Oxygen Evolution Electrocatalysts> by Rui Ding et. al. (https://arxiv.org/abs/2407.04877)
![Workflow Schematic](https://github.com/ruiding-uchicago/D.A.S.H./blob/main/Online%20Repository%20Figures/D.A.S.H.%20Workflow.jpg)
## Code Description

Our code is written and uploaded on GitHub in Jupyter notebook file format, which is already very easy to conduct and get results. Our code does not include providing a new python library, but users could track how we train machine learning models in Jupyter ipynb files. Also, we have provided all original dataset CSV files to drive the active learning flow. Additionally, we have detailed the python version and package environment used for this work, focusing on machine learning-related packages.

## Environment
This project was trained using Python version 3.9.12. Below is the list of machine learning-related packages and their versions used in this project on the local machine we used equipped with 2080 Ti GPU, users could install anaconda (https://www.anaconda.com/download) and using pip install to install the packages below for setting environment to run in the Jupyter notebook (https://docs.anaconda.com/ae-notebooks/user-guide/basic-tasks/apps/jupyter/index.html):

absl-py 1.2.0
ase 3.22.1
catboost 1.0.6
cython 0.29.28
dask 2022.2.1
deep-forest 0.1.7
gensim 4.1.2
h5py 3.6.0
keras 2.9.0
Keras-Preprocessing 1.1.2
keras-tcn 3.5.0
lightgbm 3.3.2
matplotlib 3.4.3
numpy 1.23.5
pandas 1.4.2
pytorch-lightning 2.0.1
pymatgen 2023.8.10
scikit-learn 1.0.2
scipy 1.8.0
scikit-opt  0.6.6
scikit-optimize 0.9.0
seaborn 0.11.2
tensorboard                  2.10.1
tensorboard-data-server      0.6.1
tensorboard-plugin-wit       1.8.1
tensorflow-estimator         2.10.0
tensorflow-gpu               2.10.0
tensorflow-io-gcs-filesystem 0.31.0
torch 2.0.0
torchvision 0.15.1
xgboost 1.6.2

File: B4_BEST_500_#1_High_Quality(#17)-226mV.txt
Mar. 29, 2023   12:06:02
Linear Sweep Voltammetry
File: d:\current work\al_oer\electrochemical test data\batch 4\500\B4_BEST_500_#1_High_Quality(#17)-226mV.txt
Data Source:  Experiment
Instrument Model:  CHI660E
Header:
Note:

Init E (V) = 1.107

Final E (V) = 1.539

Scan Rate (V/s) = 0.010
Sample Interval (V) = 0.001
Quiet Time (sec) = 2
Sensitivity (A/V) = 0.001
Comp R (ohm) = 5.8

Results:

Channel 1:

Potential/V, Current/A
1.107,   1.753e-4
1.109,   1.668e-4
1.111,   1.504e-4
1.113,   1.376e-4
1.115,   1.274e-4
1.117,   1.191e-4
1.119,   1.125e-4
1.121,   1.066e-4
1.123,   1.018e-4
1.125,   9.783e-5
1.127,   9.424e-5
1.129,   9.144e-5
1.131,   8.851e-5
1.133,   8.647e-5
1.135,   8.442e-5
1.137,   8.262e-5
1.139,   8.107e-5
1.141,   7.976e-5
1.143,   7.862e-5
1.145,   7.714e-5
1.147,   7.671e-5
1.149,   7.580e-5
1.151,   7.490e-5
1.153,   7.415e-5
1.155,   7.360e-5
1.157,   7.328e-5
1.159,   7.278e-5
1.161,   7.215e-5
1.163,   7.203e-5
1.165,   7.171e-5
1.167,   7.160e-5
1.169,   7.120e-5
1.171,   7.109e-5
1.173,   7.106e-5
1.175,   7.098e-5
1.177,   7.064e-5
1.179,   7.073e-5
1.181,   7.078e-5
1.183,   7.052e-5
1.185,   7.062e-5
1.187,   7.065e-5
1.189,   7.069e-5
1.191,   7.070e-5
1.193,   7.065e-5
1.195,   7.059e-5
1.197,   7.062e-5
1.199,   7.097e-5
1.201,   7.082e-5
1.203,   7.088e-5
1.205,   7.106e-5
1.207,   7.086e-5
1.209,   7.118e-5
1.211,   7.106e-5
1.213,   7.127e-5
1.215,   7.133e-5
1.217,   7.162e-5
1.219,   7.125e-5
1.221,   7.174e-5
1.223,   7.173e-5
1.225,   7.158e-5
1.227,   7.151e-5
1.229,   7.192e-5
1.231,   7.164e-5
1.233,   7.181e-5
1.235,   7.160e-5
1.237,   7.217e-5
1.239,   7.189e-5
1.241,   7.219e-5
1.243,   7.215e-5
1.245,   7.246e-5
1.247,   7.226e-5
1.249,   7.232e-5
1.251,   7.230e-5
1.253,   7.260e-5
1.255,   7.256e-5
1.257,   7.264e-5
1.259,   7.261e-5
1.261,   7.306e-5
1.263,   7.293e-5
1.265,   7.299e-5
1.267,   7.290e-5
1.269,   7.344e-5
1.271,   7.324e-5
1.273,   7.326e-5
1.275,   7.343e-5
1.277,   7.345e-5
1.279,   7.388e-5
1.281,   7.373e-5
1.283,   7.389e-5
1.285,   7.431e-5
1.287,   7.431e-5
1.289,   7.425e-5
1.291,   7.459e-5
1.293,   7.482e-5
1.295,   7.480e-5
1.297,   7.495e-5
1.299,   7.529e-5
1.301,   7.573e-5
1.303,   7.569e-5
1.305,   7.577e-5
1.307,   7.618e-5
1.309,   7.642e-5
1.311,   7.679e-5
1.313,   7.679e-5
1.315,   7.704e-5
1.317,   7.771e-5
1.319,   7.789e-5
1.321,   7.781e-5
1.323,   7.831e-5
1.325,   7.881e-5
1.327,   7.933e-5
1.329,   7.939e-5
1.331,   8.026e-5
1.333,   8.176e-5
1.335,   8.294e-5
1.337,   8.298e-5
1.339,   8.288e-5
1.341,   8.321e-5
1.343,   8.350e-5
1.345,   8.427e-5
1.347,   8.449e-5
1.349,   8.540e-5
1.351,   8.580e-5
1.353,   8.653e-5
1.355,   8.741e-5
1.357,   8.824e-5
1.359,   8.912e-5
1.361,   8.980e-5
1.363,   9.063e-5
1.365,   9.221e-5
1.367,   9.322e-5
1.369,   9.441e-5
1.371,   9.584e-5
1.373,   9.749e-5
1.375,   9.893e-5
1.377,   1.005e-4
1.379,   1.025e-4
1.381,   1.049e-4
1.383,   1.072e-4
1.385,   1.096e-4
1.387,   1.122e-4
1.389,   1.163e-4
1.391,   1.196e-4
1.393,   1.236e-4
1.395,   1.278e-4
1.397,   1.334e-4
1.399,   1.390e-4
1.401,   1.451e-4
1.403,   1.524e-4
1.405,   1.611e-4
1.407,   1.702e-4
1.409,   1.808e-4
1.411,   1.927e-4
1.413,   2.067e-4
1.415,   2.225e-4
1.417,   2.403e-4
1.419,   2.610e-4
1.421,   2.847e-4
1.423,   3.125e-4
1.425,   3.436e-4
1.427,   3.789e-4
1.429,   4.217e-4
1.431,   4.682e-4
1.433,   5.225e-4
1.435,   5.836e-4
1.437,   6.557e-4
1.439,   7.376e-4
1.441,   8.245e-4
1.443,   9.258e-4
1.445,   1.039e-3
1.447,   1.166e-3
1.449,   1.303e-3
1.451,   1.451e-3
1.453,   1.606e-3
1.455,   1.771e-3
1.457,   1.941e-3
1.459,   2.115e-3
1.461,   2.280e-3
1.463,   2.445e-3
1.465,   2.595e-3
1.467,   2.737e-3
1.469,   2.915e-3
1.471,   3.050e-3
1.473,   3.097e-3
1.475,   3.252e-3
1.477,   3.433e-3
1.479,   3.578e-3
1.481,   3.794e-3
1.483,   3.981e-3
1.485,   4.172e-3
1.487,   4.355e-3
1.489,   4.569e-3
1.491,   4.712e-3
1.493,   4.992e-3
1.495,   5.201e-3
1.497,   5.451e-3
1.499,   5.545e-3
1.501,   5.793e-3
1.503,   6.019e-3
1.505,   6.271e-3
1.507,   6.505e-3
1.509,   6.615e-3
1.511,   6.924e-3
1.513,   7.233e-3
1.515,   7.225e-3
1.517,   7.706e-3
1.519,   7.923e-3
1.521,   8.145e-3
1.523,   8.625e-3
1.525,   8.657e-3
1.527,   8.937e-3
1.529,   8.993e-3
1.531,   9.454e-3
1.533,   9.613e-3
1.535,   9.743e-3
1.537,   9.794e-3
1.539,   1.006e-2

File: B4_BEST_500_#2_Full-247mV.txt
Mar. 29, 2023   11:53:50
Linear Sweep Voltammetry
File: d:\current work\al_oer\electrochemical test data\batch 4\500\B4_BEST_500_#2_Full-247mV.txt
Data Source:  Experiment
Instrument Model:  CHI660E
Header:
Note:

Init E (V) = 1.149

Final E (V) = 1.520

Scan Rate (V/s) = 0.010
Sample Interval (V) = 0.001
Quiet Time (sec) = 2
Sensitivity (A/V) = 0.001
Comp R (ohm) = 6.1

Results:

Channel 1:

Potential/V, Current/A
1.149,   4.483e-4
1.151,   3.840e-4
1.153,   3.290e-4
1.155,   2.871e-4
1.157,   2.547e-4
1.159,   2.287e-4
1.161,   2.078e-4
1.163,   1.908e-4
1.165,   1.764e-4
1.167,   1.645e-4
1.169,   1.544e-4
1.171,   1.457e-4
1.173,   1.380e-4
1.175,   1.315e-4
1.177,   1.257e-4
1.179,   1.206e-4
1.181,   1.162e-4
1.183,   1.124e-4
1.185,   1.087e-4
1.187,   1.055e-4
1.189,   1.026e-4
1.191,   1.002e-4
1.193,   9.790e-5
1.195,   9.580e-5
1.197,   9.384e-5
1.199,   9.228e-5
1.201,   9.078e-5
1.203,   8.933e-5
1.205,   8.795e-5
1.207,   8.697e-5
1.209,   8.595e-5
1.211,   8.488e-5
1.213,   8.397e-5
1.215,   8.333e-5
1.217,   8.252e-5
1.219,   8.178e-5
1.221,   8.143e-5
1.223,   8.087e-5
1.225,   8.046e-5
1.227,   7.990e-5
1.229,   7.944e-5
1.231,   7.913e-5
1.233,   7.884e-5
1.235,   7.850e-5
1.237,   7.816e-5
1.239,   7.803e-5
1.241,   7.785e-5
1.243,   7.759e-5
1.245,   7.736e-5
1.247,   7.738e-5
1.249,   7.719e-5
1.251,   7.701e-5
1.253,   7.697e-5
1.255,   7.697e-5
1.257,   7.693e-5
1.259,   7.690e-5
1.261,   7.669e-5
1.263,   7.670e-5
1.265,   7.682e-5
1.267,   7.665e-5
1.269,   7.655e-5
1.271,   7.676e-5
1.273,   7.681e-5
1.275,   7.674e-5
1.277,   7.676e-5
1.279,   7.701e-5
1.281,   7.706e-5
1.283,   7.698e-5
1.285,   7.723e-5
1.287,   7.732e-5
1.289,   7.735e-5
1.291,   7.749e-5
1.293,   7.748e-5
1.295,   7.765e-5
1.297,   7.786e-5
1.299,   7.786e-5
1.301,   7.805e-5
1.303,   7.824e-5
1.305,   7.840e-5
1.307,   7.848e-5
1.309,   7.850e-5
1.311,   7.894e-5
1.313,   7.909e-5
1.315,   7.913e-5
1.317,   7.930e-5
1.319,   7.952e-5
1.321,   7.977e-5
1.323,   8.003e-5
1.325,   8.013e-5
1.327,   8.045e-5
1.329,   8.063e-5
1.331,   8.091e-5
1.333,   8.110e-5
1.335,   8.130e-5
1.337,   8.173e-5
1.339,   8.194e-5
1.341,   8.217e-5
1.343,   8.272e-5
1.345,   8.294e-5
1.347,   8.318e-5
1.349,   8.372e-5
1.351,   8.418e-5
1.353,   8.449e-5
1.355,   8.487e-5
1.357,   8.519e-5
1.359,   8.583e-5
1.361,   8.647e-5
1.363,   8.675e-5
1.365,   8.727e-5
1.367,   8.797e-5
1.369,   8.862e-5
1.371,   8.911e-5
1.373,   8.974e-5
1.375,   9.087e-5
1.377,   9.143e-5
1.379,   9.206e-5
1.381,   9.300e-5
1.383,   9.399e-5
1.385,   9.495e-5
1.387,   9.612e-5
1.389,   9.711e-5
1.391,   9.853e-5
1.393,   9.998e-5
1.395,   1.014e-4
1.397,   1.031e-4
1.399,   1.051e-4
1.401,   1.072e-4
1.403,   1.092e-4
1.405,   1.117e-4
1.407,   1.147e-4
1.409,   1.179e-4
1.411,   1.213e-4
1.413,   1.255e-4
1.415,   1.299e-4
1.417,   1.351e-4
1.419,   1.409e-4
1.421,   1.472e-4
1.423,   1.548e-4
1.425,   1.634e-4
1.427,   1.730e-4
1.429,   1.840e-4
1.431,   1.967e-4
1.433,   2.111e-4
1.435,   2.277e-4
1.437,   2.469e-4
1.439,   2.691e-4
1.441,   2.935e-4
1.443,   3.216e-4
1.445,   3.536e-4
1.447,   3.907e-4
1.449,   4.322e-4
1.451,   4.791e-4
1.453,   5.313e-4
1.455,   5.903e-4
1.457,   6.568e-4
1.459,   7.316e-4
1.461,   8.139e-4
1.463,   9.058e-4
1.465,   1.007e-3
1.467,   1.119e-3
1.469,   1.243e-3
1.471,   1.381e-3
1.473,   1.531e-3
1.475,   1.692e-3
1.477,   1.867e-3
1.479,   2.062e-3
1.481,   2.277e-3
1.483,   2.502e-3
1.485,   2.747e-3
1.487,   3.021e-3
1.489,   3.316e-3
1.491,   3.616e-3
1.493,   3.947e-3
1.495,   4.432e-3
1.497,   4.842e-3
1.499,   5.255e-3
1.501,   5.723e-3
1.503,   6.220e-3
1.505,   6.718e-3
1.507,   7.218e-3
1.509,   7.762e-3
1.511,   8.282e-3
1.513,   8.823e-3
1.515,   9.475e-3
1.517,   9.977e-3
1.519,   1.006e-2
1.520,   1.006e-2

File: B4_BEST_500_#2_High_Quality(#18)-229mV.txt
Mar. 29, 2023   12:03:05
Linear Sweep Voltammetry
File: d:\current work\al_oer\electrochemical test data\batch 4\500\B4_BEST_500_#2_High_Quality(#18)-229mV.txt
Data Source:  Experiment
Instrument Model:  CHI660E
Header:
Note:

Init E (V) = 1.117

Final E (V) = 1.510

Scan Rate (V/s) = 0.010
Sample Interval (V) = 0.001
Quiet Time (sec) = 2
Sensitivity (A/V) = 0.001
Comp R (ohm) = 5.8

Results:

Channel 1:

Potential/V, Current/A
1.117,   1.016e-4
1.119,   1.169e-4
1.121,   1.083e-4
1.123,   1.012e-4
1.125,   9.605e-5
1.127,   9.192e-5
1.129,   8.886e-5
1.131,   8.618e-5
1.133,   8.399e-5
1.135,   8.249e-5
1.137,   8.127e-5
1.139,   8.000e-5
1.141,   7.896e-5
1.143,   7.823e-5
1.145,   7.767e-5
1.147,   7.690e-5
1.149,   7.646e-5
1.151,   7.637e-5
1.153,   7.599e-5
1.155,   7.551e-5
1.157,   7.542e-5
1.159,   7.530e-5
1.161,   7.518e-5
1.163,   7.513e-5
1.165,   7.488e-5
1.167,   7.508e-5
1.169,   7.505e-5
1.171,   7.504e-5
1.173,   7.506e-5
1.175,   7.538e-5
1.177,   7.553e-5
1.179,   7.554e-5
1.181,   7.553e-5
1.183,   7.593e-5
1.185,   7.609e-5
1.187,   7.631e-5
1.189,   7.654e-5
1.191,   7.683e-5
1.193,   7.690e-5
1.195,   7.718e-5
1.197,   7.710e-5
1.199,   7.772e-5
1.201,   7.799e-5
1.203,   7.807e-5
1.205,   7.828e-5
1.207,   7.867e-5
1.209,   7.897e-5
1.211,   7.920e-5
1.213,   7.938e-5
1.215,   8.011e-5
1.217,   8.038e-5
1.219,   8.036e-5
1.221,   8.088e-5
1.223,   8.131e-5
1.225,   8.170e-5
1.227,   8.199e-5
1.229,   8.199e-5
1.231,   8.262e-5
1.233,   8.300e-5
1.235,   8.321e-5
1.237,   8.335e-5
1.239,   8.405e-5
1.241,   8.428e-5
1.243,   8.446e-5
1.245,   8.469e-5
1.247,   8.536e-5
1.249,   8.552e-5
1.251,   8.559e-5
1.253,   8.605e-5
1.255,   8.623e-5
1.257,   8.646e-5
1.259,   8.659e-5
1.261,   8.659e-5
1.263,   8.715e-5
1.265,   8.722e-5
1.267,   8.707e-5
1.269,   8.720e-5
1.271,   8.746e-5
1.273,   8.755e-5
1.275,   8.741e-5
1.277,   8.725e-5
1.279,   8.789e-5
1.281,   8.770e-5
1.283,   8.761e-5
1.285,   8.766e-5
1.287,   8.757e-5
1.289,   8.770e-5
1.291,   8.779e-5
1.293,   8.762e-5
1.295,   8.781e-5
1.297,   8.785e-5
1.299,   8.757e-5
1.301,   8.758e-5
1.303,   8.779e-5
1.305,   8.802e-5
1.307,   8.784e-5
1.309,   8.775e-5
1.311,   8.810e-5
1.313,   8.812e-5
1.315,   8.807e-5
1.317,   8.838e-5
1.319,   8.845e-5
1.321,   8.856e-5
1.323,   8.868e-5
1.325,   8.872e-5
1.327,   8.904e-5
1.329,   8.934e-5
1.331,   8.943e-5
1.333,   8.951e-5
1.335,   9.001e-5
1.337,   9.046e-5
1.339,   9.054e-5
1.341,   9.065e-5
1.343,   9.177e-5
1.345,   9.168e-5
1.347,   9.191e-5
1.349,   9.236e-5
1.351,   9.302e-5
1.353,   9.352e-5
1.355,   9.405e-5
1.357,   9.455e-5
1.359,   9.529e-5
1.361,   9.591e-5
1.363,   9.658e-5
1.365,   9.735e-5
1.367,   9.832e-5
1.369,   9.954e-5
1.371,   1.003e-4
1.373,   1.014e-4
1.375,   1.030e-4
1.377,   1.044e-4
1.379,   1.057e-4
1.381,   1.079e-4
1.383,   1.097e-4
1.385,   1.121e-4
1.387,   1.147e-4
1.389,   1.174e-4
1.391,   1.211e-4
1.393,   1.252e-4
1.395,   1.295e-4
1.397,   1.346e-4
1.399,   1.409e-4
1.401,   1.479e-4
1.403,   1.559e-4
1.405,   1.651e-4
1.407,   1.764e-4
1.409,   1.888e-4
1.411,   2.029e-4
1.413,   2.195e-4
1.415,   2.389e-4
1.417,   2.612e-4
1.419,   2.863e-4
1.421,   3.147e-4
1.423,   3.475e-4
1.425,   3.841e-4
1.427,   4.243e-4
1.429,   4.685e-4
1.431,   5.191e-4
1.433,   5.750e-4
1.435,   6.359e-4
1.437,   7.002e-4
1.439,   7.723e-4
1.441,   8.480e-4
1.443,   9.332e-4
1.445,   1.019e-3
1.447,   1.115e-3
1.449,   1.215e-3
1.451,   1.338e-3
1.453,   1.467e-3
1.455,   1.585e-3
1.457,   1.737e-3
1.459,   1.896e-3
1.461,   2.063e-3
1.463,   2.222e-3
1.465,   2.420e-3
1.467,   2.613e-3
1.469,   2.822e-3
1.471,   3.061e-3
1.473,   3.311e-3
1.475,   3.552e-3
1.477,   3.845e-3
1.479,   4.120e-3
1.481,   4.434e-3
1.483,   4.763e-3
1.485,   5.077e-3
1.487,   5.438e-3
1.489,   5.814e-3
1.491,   6.184e-3
1.493,   6.598e-3
1.495,   7.037e-3
1.497,   7.515e-3
1.499,   8.053e-3
1.501,   8.680e-3
1.503,   9.188e-3
1.505,   9.691e-3
1.507,   1.006e-2
1.509,   1.006e-2
1.510,   1.006e-2

File: B4_BEST_500_#3_Full-216mV.txt
Mar. 28, 2023   11:58:01
Linear Sweep Voltammetry
File: d:\current work\al_oer\electrochemical test data\batch 4\500\B4_BEST_500_#3_Full-216mV.txt
Data Source:  Experiment
Instrument Model:  CHI660E
Header:
Note:

Init E (V) = 1.099

Final E (V) = 1.698

Scan Rate (V/s) = 0.010
Sample Interval (V) = 0.001
Quiet Time (sec) = 2
Sensitivity (A/V) = 0.001
Comp R (ohm) = 5.0

Results:

Channel 1:
Ep = 1.343V
ip = 5.658e-3A
Ah = 8.901e-2C

Potential/V, Current/A
1.099,   5.251e-4
1.101,   4.507e-4
1.103,   3.895e-4
1.105,   3.428e-4
1.107,   3.039e-4
1.109,   2.736e-4
1.111,   2.478e-4
1.113,   2.255e-4
1.115,   2.074e-4
1.117,   1.916e-4
1.119,   1.784e-4
1.121,   1.675e-4
1.123,   1.574e-4
1.125,   1.490e-4
1.127,   1.412e-4
1.129,   1.348e-4
1.131,   1.290e-4
1.133,   1.238e-4
1.135,   1.193e-4
1.137,   1.155e-4
1.139,   1.118e-4
1.141,   1.086e-4
1.143,   1.055e-4
1.145,   1.028e-4
1.147,   1.004e-4
1.149,   9.848e-5
1.151,   9.617e-5
1.153,   9.460e-5
1.155,   9.295e-5
1.157,   9.140e-5
1.159,   9.011e-5
1.161,   8.896e-5
1.163,   8.775e-5
1.165,   8.695e-5
1.167,   8.606e-5
1.169,   8.540e-5
1.171,   8.493e-5
1.173,   8.415e-5
1.175,   8.348e-5
1.177,   8.323e-5
1.179,   8.243e-5
1.181,   8.208e-5
1.183,   8.164e-5
1.185,   8.152e-5
1.187,   8.124e-5
1.189,   8.119e-5
1.191,   8.113e-5
1.193,   8.089e-5
1.195,   8.083e-5
1.197,   8.080e-5
1.199,   8.078e-5
1.201,   8.062e-5
1.203,   8.066e-5
1.205,   8.060e-5
1.207,   8.075e-5
1.209,   8.067e-5
1.211,   8.068e-5
1.213,   8.098e-5
1.215,   8.105e-5
1.217,   8.115e-5
1.219,   8.114e-5
1.221,   8.130e-5
1.223,   8.143e-5
1.225,   8.166e-5
1.227,   8.181e-5
1.229,   8.216e-5
1.231,   8.227e-5
1.233,   8.239e-5
1.235,   8.264e-5
1.237,   8.293e-5
1.239,   8.330e-5
1.241,   8.329e-5
1.243,   8.328e-5
1.245,   8.350e-5
1.247,   8.369e-5
1.249,   8.376e-5
1.251,   8.415e-5
1.253,   8.433e-5
1.255,   8.455e-5
1.257,   8.467e-5
1.259,   8.486e-5
1.261,   8.528e-5
1.263,   8.552e-5
1.265,   8.574e-5
1.267,   8.613e-5
1.269,   8.657e-5
1.271,   8.678e-5
1.273,   8.702e-5
1.275,   8.733e-5
1.277,   8.753e-5
1.279,   8.768e-5
1.281,   8.788e-5
1.283,   8.837e-5
1.285,   8.906e-5
1.287,   8.939e-5
1.289,   8.967e-5
1.291,   9.014e-5
1.293,   9.077e-5
1.295,   9.121e-5
1.297,   9.164e-5
1.299,   9.201e-5
1.301,   9.270e-5
1.303,   9.330e-5
1.305,   9.380e-5
1.307,   9.416e-5
1.309,   9.504e-5
1.311,   9.554e-5
1.313,   9.628e-5
1.315,   9.708e-5
1.317,   9.795e-5
1.319,   9.887e-5
1.321,   9.971e-5
1.323,   1.005e-4
1.325,   1.019e-4
1.327,   1.027e-4
1.329,   1.037e-4
1.331,   1.049e-4
1.333,   1.063e-4
1.335,   1.077e-4
1.337,   1.091e-4
1.339,   1.104e-4
1.341,   1.121e-4
1.343,   1.139e-4
1.345,   1.158e-4
1.347,   1.177e-4
1.349,   1.199e-4
1.351,   1.223e-4
1.353,   1.248e-4
1.355,   1.273e-4
1.357,   1.304e-4
1.359,   1.337e-4
1.361,   1.370e-4
1.363,   1.409e-4
1.365,   1.452e-4
1.367,   1.499e-4
1.369,   1.550e-4
1.371,   1.603e-4
1.373,   1.665e-4
1.375,   1.731e-4
1.377,   1.805e-4
1.379,   1.884e-4
1.381,   1.976e-4
1.383,   2.077e-4
1.385,   2.191e-4
1.387,   2.318e-4
1.389,   2.458e-4
1.391,   2.612e-4
1.393,   2.786e-4
1.395,   2.980e-4
1.397,   3.199e-4
1.399,   3.441e-4
1.401,   3.700e-4
1.403,   3.992e-4
1.405,   4.308e-4
1.407,   4.658e-4
1.409,   5.040e-4
1.411,   5.457e-4
1.413,   5.913e-4
1.415,   6.397e-4
1.417,   6.919e-4
1.419,   7.477e-4
1.421,   8.089e-4
1.423,   8.730e-4
1.425,   9.411e-4
1.427,   1.014e-3
1.429,   1.090e-3
1.431,   1.172e-3
1.433,   1.257e-3
1.435,   1.348e-3
1.437,   1.439e-3
1.439,   1.534e-3
1.441,   1.637e-3
1.443,   1.742e-3
1.445,   1.851e-3
1.447,   1.959e-3
1.449,   2.076e-3
1.451,   2.191e-3
1.453,   2.310e-3
1.455,   2.429e-3
1.457,   2.551e-3
1.459,   2.679e-3
1.461,   2.806e-3
1.463,   2.933e-3
1.465,   3.063e-3
1.467,   3.192e-3
1.469,   3.322e-3
1.471,   3.445e-3
1.473,   3.570e-3
1.475,   3.683e-3
1.477,   3.806e-3
1.479,   3.933e-3
1.481,   4.052e-3
1.483,   4.159e-3
1.485,   4.274e-3
1.487,   4.377e-3
1.489,   4.484e-3
1.491,   4.573e-3
1.493,   4.657e-3
1.495,   4.751e-3
1.497,   4.823e-3
1.499,   4.899e-3
1.501,   4.977e-3
1.503,   5.042e-3
1.505,   5.108e-3
1.507,   5.172e-3
1.509,   5.224e-3
1.511,   5.280e-3
1.513,   5.361e-3
1.515,   5.414e-3
1.517,   5.458e-3
1.519,   5.490e-3
1.521,   5.513e-3
1.523,   5.549e-3
1.525,   5.566e-3
1.527,   5.606e-3
1.529,   5.645e-3
1.531,   5.653e-3
1.533,   5.677e-3
1.535,   5.682e-3
1.537,   5.741e-3
1.539,   5.782e-3
1.541,   5.820e-3
1.543,   5.813e-3
1.545,   5.816e-3
1.547,   5.816e-3
1.549,   5.790e-3
1.551,   5.773e-3
1.553,   5.771e-3
1.555,   5.746e-3
1.557,   5.795e-3
1.559,   5.795e-3
1.561,   5.777e-3
1.563,   5.755e-3
1.565,   5.748e-3
1.567,   5.734e-3
1.569,   5.723e-3
1.571,   5.681e-3
1.573,   5.682e-3
1.575,   5.653e-3
1.577,   5.644e-3
1.579,   5.619e-3
1.581,   5.610e-3
1.583,   5.608e-3
1.585,   5.578e-3
1.587,   5.590e-3
1.589,   5.598e-3
1.591,   5.574e-3
1.593,   5.530e-3
1.595,   5.483e-3
1.597,   5.478e-3
1.599,   5.462e-3
1.601,   5.435e-3
1.603,   5.412e-3
1.605,   5.403e-3
1.607,   5.377e-3
1.609,   5.349e-3
1.611,   5.331e-3
1.613,   5.279e-3
1.615,   5.254e-3
1.617,   5.220e-3
1.619,   5.206e-3
1.621,   5.189e-3
1.623,   5.170e-3
1.625,   5.149e-3
1.627,   5.131e-3
1.629,   5.100e-3
1.631,   5.062e-3
1.633,   5.048e-3
1.635,   5.015e-3
1.637,   4.994e-3
1.639,   4.969e-3
1.641,   4.930e-3
1.643,   4.911e-3
1.645,   4.864e-3
1.647,   4.860e-3
1.649,   4.809e-3
1.651,   4.807e-3
1.653,   4.804e-3
1.655,   4.770e-3
1.657,   4.755e-3
1.659,   4.731e-3
1.661,   4.691e-3
1.663,   4.646e-3
1.665,   4.617e-3
1.667,   4.576e-3
1.669,   4.532e-3
1.671,   4.517e-3
1.673,   4.495e-3
1.675,   4.438e-3
1.677,   4.435e-3
1.679,   4.392e-3
1.681,   4.356e-3
1.683,   4.326e-3
1.685,   4.297e-3
1.687,   4.271e-3
1.689,   4.242e-3
1.691,   4.227e-3
1.693,   4.198e-3
1.695,   4.169e-3
1.697,   4.143e-3
1.698,   4.125e-3

File: B4_BEST_500_#3_High_Quality(#19)-176mV.txt
Mar. 28, 2023   13:37:33
Linear Sweep Voltammetry
File: d:\current work\al_oer\electrochemical test data\batch 4\500\B4_BEST_500_#3_High_Quality(#19)-176mV.txt
Data Source:  Experiment
Instrument Model:  CHI660E
Header:
Note:

Init E (V) = 1.098

Final E (V) = 1.498

Scan Rate (V/s) = 0.010
Sample Interval (V) = 0.001
Quiet Time (sec) = 2
Sensitivity (A/V) = 0.001
Comp R (ohm) = 6.3

Results:

Channel 1:

Potential/V, Current/A
1.098,   1.258e-3
1.100,   8.524e-4
1.102,   6.179e-4
1.104,   4.779e-4
1.106,   3.904e-4
1.108,   3.331e-4
1.110,   2.932e-4
1.112,   2.646e-4
1.114,   2.431e-4
1.116,   2.270e-4
1.118,   2.147e-4
1.120,   2.051e-4
1.122,   1.969e-4
1.124,   1.907e-4
1.126,   1.857e-4
1.128,   1.814e-4
1.130,   1.777e-4
1.132,   1.753e-4
1.134,   1.728e-4
1.136,   1.707e-4
1.138,   1.690e-4
1.140,   1.678e-4
1.142,   1.667e-4
1.144,   1.659e-4
1.146,   1.650e-4
1.148,   1.643e-4
1.150,   1.638e-4
1.152,   1.634e-4
1.154,   1.631e-4
1.156,   1.627e-4
1.158,   1.629e-4
1.160,   1.625e-4
1.162,   1.621e-4
1.164,   1.624e-4
1.166,   1.623e-4
1.168,   1.622e-4
1.170,   1.624e-4
1.172,   1.623e-4
1.174,   1.625e-4
1.176,   1.626e-4
1.178,   1.626e-4
1.180,   1.629e-4
1.182,   1.631e-4
1.184,   1.633e-4
1.186,   1.634e-4
1.188,   1.635e-4
1.190,   1.641e-4
1.192,   1.642e-4
1.194,   1.643e-4
1.196,   1.651e-4
1.198,   1.652e-4
1.200,   1.651e-4
1.202,   1.657e-4
1.204,   1.658e-4
1.206,   1.663e-4
1.208,   1.668e-4
1.210,   1.669e-4
1.212,   1.673e-4
1.214,   1.679e-4
1.216,   1.680e-4
1.218,   1.683e-4
1.220,   1.687e-4
1.222,   1.695e-4
1.224,   1.696e-4
1.226,   1.698e-4
1.228,   1.706e-4
1.230,   1.711e-4
1.232,   1.714e-4
1.234,   1.720e-4
1.236,   1.722e-4
1.238,   1.730e-4
1.240,   1.732e-4
1.242,   1.735e-4
1.244,   1.745e-4
1.246,   1.747e-4
1.248,   1.751e-4
1.250,   1.756e-4
1.252,   1.762e-4
1.254,   1.770e-4
1.256,   1.773e-4
1.258,   1.777e-4
1.260,   1.788e-4
1.262,   1.793e-4
1.264,   1.797e-4
1.266,   1.803e-4
1.268,   1.810e-4
1.270,   1.819e-4
1.272,   1.828e-4
1.274,   1.830e-4
1.276,   1.843e-4
1.278,   1.850e-4
1.280,   1.856e-4
1.282,   1.862e-4
1.284,   1.874e-4
1.286,   1.887e-4
1.288,   1.894e-4
1.290,   1.901e-4
1.292,   1.915e-4
1.294,   1.928e-4
1.296,   1.936e-4
1.298,   1.950e-4
1.300,   1.963e-4
1.302,   1.979e-4
1.304,   1.991e-4
1.306,   2.004e-4
1.308,   2.025e-4
1.310,   2.043e-4
1.312,   2.059e-4
1.314,   2.079e-4
1.316,   2.102e-4
1.318,   2.125e-4
1.320,   2.149e-4
1.322,   2.173e-4
1.324,   2.215e-4
1.326,   2.239e-4
1.328,   2.272e-4
1.330,   2.309e-4
1.332,   2.350e-4
1.334,   2.395e-4
1.336,   2.444e-4
1.338,   2.493e-4
1.340,   2.555e-4
1.342,   2.618e-4
1.344,   2.683e-4
1.346,   2.757e-4
1.348,   2.841e-4
1.350,   2.934e-4
1.352,   3.028e-4
1.354,   3.134e-4
1.356,   3.257e-4
1.358,   3.380e-4
1.360,   3.516e-4
1.362,   3.673e-4
1.364,   3.839e-4
1.366,   4.023e-4
1.368,   4.226e-4
1.370,   4.446e-4
1.372,   4.703e-4
1.374,   4.986e-4
1.376,   5.298e-4
1.378,   5.649e-4
1.380,   6.047e-4
1.382,   6.498e-4
1.384,   6.999e-4
1.386,   7.568e-4
1.388,   8.221e-4
1.390,   8.944e-4
1.392,   9.759e-4
1.394,   1.068e-3
1.396,   1.170e-3
1.398,   1.286e-3
1.400,   1.413e-3
1.402,   1.553e-3
1.404,   1.707e-3
1.406,   1.876e-3
1.408,   2.058e-3
1.410,   2.255e-3
1.412,   2.466e-3
1.414,   2.693e-3
1.416,   2.929e-3
1.418,   3.177e-3
1.420,   3.434e-3
1.422,   3.694e-3
1.424,   3.964e-3
1.426,   4.236e-3
1.428,   4.509e-3
1.430,   4.778e-3
1.432,   5.042e-3
1.434,   5.298e-3
1.436,   5.542e-3
1.438,   5.775e-3
1.440,   5.993e-3
1.442,   6.201e-3
1.444,   6.389e-3
1.446,   6.557e-3
1.448,   6.710e-3
1.450,   6.845e-3
1.452,   6.978e-3
1.454,   7.097e-3
1.456,   7.218e-3
1.458,   7.425e-3
1.460,   7.487e-3
1.462,   7.542e-3
1.464,   7.585e-3
1.466,   7.634e-3
1.468,   7.670e-3
1.470,   7.690e-3
1.472,   7.710e-3
1.474,   7.731e-3
1.476,   7.742e-3
1.478,   7.753e-3
1.480,   7.756e-3
1.482,   7.750e-3
1.484,   7.744e-3
1.486,   7.732e-3
1.488,   7.863e-3
1.490,   7.817e-3
1.492,   7.793e-3
1.494,   7.777e-3
1.496,   7.745e-3
1.498,   7.721e-3