Folder: DASH/Experimental Records and Raw Data/batch4/final400

Note: README.md
# DASH
This is the online repository that stores code, data and supplementary figures of the research work: <Leveraging Data Mining, Active Learning, and Domain Adaptation in a Multi-Stage, Machine Learning-Driven Approach for the Efficient Discovery of Advanced Acidic Oxygen Evolution Electrocatalysts> by Rui Ding et. al. (https://arxiv.org/abs/2407.04877)
![Workflow Schematic](https://github.com/ruiding-uchicago/D.A.S.H./blob/main/Online%20Repository%20Figures/D.A.S.H.%20Workflow.jpg)
## Code Description

Our code is written and uploaded on GitHub in Jupyter notebook file format, which is already very easy to conduct and get results. Our code does not include providing a new python library, but users could track how we train machine learning models in Jupyter ipynb files. Also, we have provided all original dataset CSV files to drive the active learning flow. Additionally, we have detailed the python version and package environment used for this work, focusing on machine learning-related packages.

## Environment
This project was trained using Python version 3.9.12. Below is the list of machine learning-related packages and their versions used in this project on the local machine we used equipped with 2080 Ti GPU, users could install anaconda (https://www.anaconda.com/download) and using pip install to install the packages below for setting environment to run in the Jupyter notebook (https://docs.anaconda.com/ae-notebooks/user-guide/basic-tasks/apps/jupyter/index.html):

absl-py 1.2.0
ase 3.22.1
catboost 1.0.6
cython 0.29.28
dask 2022.2.1
deep-forest 0.1.7
gensim 4.1.2
h5py 3.6.0
keras 2.9.0
Keras-Preprocessing 1.1.2
keras-tcn 3.5.0
lightgbm 3.3.2
matplotlib 3.4.3
numpy 1.23.5
pandas 1.4.2
pytorch-lightning 2.0.1
pymatgen 2023.8.10
scikit-learn 1.0.2
scipy 1.8.0
scikit-opt  0.6.6
scikit-optimize 0.9.0
seaborn 0.11.2
tensorboard                  2.10.1
tensorboard-data-server      0.6.1
tensorboard-plugin-wit       1.8.1
tensorflow-estimator         2.10.0
tensorflow-gpu               2.10.0
tensorflow-io-gcs-filesystem 0.31.0
torch 2.0.0
torchvision 0.15.1
xgboost 1.6.2

File: B4_BEST_400_#2_High_Quality(#18)-217mV.txt
Mar. 27, 2023   17:18:49
Linear Sweep Voltammetry
File: d:\current work\al_oer\electrochemical test data\batch 4\400\B4_BEST_400_#2_High_Quality(#18)-217mV.txt
Data Source:  Experiment
Instrument Model:  CHI660E
Header:
Note:

Init E (V) = 1.067

Final E (V) = 1.466

Scan Rate (V/s) = 0.010
Sample Interval (V) = 0.001
Quiet Time (sec) = 2
Sensitivity (A/V) = 0.001
Comp R (ohm) = 6.4

Results:

Channel 1:

Potential/V, Current/A
1.067,   4.213e-5
1.069,   4.174e-5
1.071,   3.792e-5
1.073,   3.589e-5
1.075,   3.259e-5
1.077,   3.081e-5
1.079,   2.886e-5
1.081,   2.743e-5
1.083,   2.744e-5
1.085,   2.557e-5
1.087,   2.467e-5
1.089,   2.394e-5
1.091,   2.288e-5
1.093,   2.233e-5
1.095,   2.177e-5
1.097,   2.158e-5
1.099,   2.087e-5
1.101,   2.055e-5
1.103,   2.018e-5
1.105,   2.054e-5
1.107,   1.960e-5
1.109,   1.939e-5
1.111,   1.916e-5
1.113,   1.905e-5
1.115,   1.884e-5
1.117,   1.872e-5
1.119,   1.852e-5
1.121,   1.837e-5
1.123,   1.831e-5
1.125,   1.835e-5
1.127,   1.888e-5
1.129,   1.808e-5
1.131,   1.802e-5
1.133,   1.801e-5
1.135,   1.802e-5
1.137,   1.788e-5
1.139,   1.773e-5
1.141,   1.791e-5
1.143,   1.794e-5
1.145,   1.795e-5
1.147,   1.803e-5
1.149,   1.903e-5
1.151,   1.796e-5
1.153,   1.789e-5
1.155,   1.799e-5
1.157,   1.799e-5
1.159,   1.796e-5
1.161,   1.830e-5
1.163,   1.796e-5
1.165,   1.829e-5
1.167,   1.809e-5
1.169,   1.805e-5
1.171,   1.807e-5
1.173,   1.843e-5
1.175,   1.819e-5
1.177,   1.816e-5
1.179,   1.821e-5
1.181,   1.825e-5
1.183,   1.858e-5
1.185,   1.821e-5
1.187,   1.842e-5
1.189,   1.830e-5
1.191,   1.865e-5
1.193,   1.865e-5
1.195,   1.843e-5
1.197,   1.858e-5
1.199,   1.841e-5
1.201,   1.835e-5
1.203,   1.836e-5
1.205,   1.848e-5
1.207,   1.841e-5
1.209,   1.846e-5
1.211,   1.854e-5
1.213,   1.852e-5
1.215,   1.888e-5
1.217,   1.837e-5
1.219,   1.849e-5
1.221,   1.848e-5
1.223,   1.837e-5
1.225,   1.904e-5
1.227,   1.837e-5
1.229,   1.841e-5
1.231,   1.902e-5
1.233,   1.826e-5
1.235,   1.827e-5
1.237,   1.834e-5
1.239,   1.823e-5
1.241,   1.827e-5
1.243,   1.822e-5
1.245,   1.836e-5
1.247,   1.827e-5
1.249,   1.824e-5
1.251,   1.820e-5
1.253,   1.824e-5
1.255,   1.828e-5
1.257,   1.838e-5
1.259,   1.815e-5
1.261,   1.828e-5
1.263,   1.834e-5
1.265,   1.857e-5
1.267,   1.825e-5
1.269,   1.848e-5
1.271,   1.842e-5
1.273,   1.843e-5
1.275,   1.838e-5
1.277,   1.867e-5
1.279,   1.846e-5
1.281,   1.844e-5
1.283,   1.851e-5
1.285,   1.870e-5
1.287,   1.871e-5
1.289,   1.871e-5
1.291,   1.871e-5
1.293,   1.894e-5
1.295,   1.895e-5
1.297,   1.903e-5
1.299,   1.914e-5
1.301,   1.959e-5
1.303,   1.954e-5
1.305,   1.962e-5
1.307,   1.970e-5
1.309,   2.003e-5
1.311,   2.004e-5
1.313,   2.034e-5
1.315,   2.046e-5
1.317,   2.073e-5
1.319,   2.097e-5
1.321,   2.117e-5
1.323,   2.154e-5
1.325,   2.198e-5
1.327,   2.230e-5
1.329,   2.293e-5
1.331,   2.329e-5
1.333,   2.386e-5
1.335,   2.446e-5
1.337,   2.523e-5
1.339,   2.583e-5
1.341,   2.668e-5
1.343,   2.766e-5
1.345,   2.863e-5
1.347,   2.977e-5
1.349,   3.121e-5
1.351,   3.272e-5
1.353,   3.447e-5
1.355,   3.639e-5
1.357,   3.843e-5
1.359,   4.084e-5
1.361,   4.397e-5
1.363,   4.717e-5
1.365,   5.002e-5
1.367,   5.408e-5
1.369,   5.831e-5
1.371,   6.271e-5
1.373,   6.844e-5
1.375,   7.421e-5
1.377,   8.113e-5
1.379,   8.846e-5
1.381,   9.668e-5
1.383,   1.063e-4
1.385,   1.163e-4
1.387,   1.279e-4
1.389,   1.404e-4
1.391,   1.547e-4
1.393,   1.706e-4
1.395,   1.873e-4
1.397,   2.060e-4
1.399,   2.274e-4
1.401,   2.499e-4
1.403,   2.750e-4
1.405,   3.031e-4
1.407,   3.342e-4
1.409,   3.672e-4
1.411,   4.041e-4
1.413,   4.441e-4
1.415,   4.873e-4
1.417,   5.364e-4
1.419,   5.878e-4
1.421,   6.450e-4
1.423,   7.067e-4
1.425,   7.730e-4
1.427,   8.448e-4
1.429,   9.230e-4
1.431,   1.006e-3
1.433,   1.096e-3
1.435,   1.190e-3
1.437,   1.289e-3
1.439,   1.399e-3
1.441,   1.513e-3
1.443,   1.647e-3
1.445,   1.775e-3
1.447,   1.911e-3
1.449,   2.054e-3
1.451,   2.199e-3
1.453,   2.360e-3
1.455,   2.546e-3
1.457,   2.719e-3
1.459,   2.903e-3
1.461,   3.172e-3
1.463,   3.426e-3
1.465,   3.818e-3
1.466,   3.883e-3

File: B4_BEST_400_#3_Full-195mV.txt
Mar. 27, 2023   16:13:50
Linear Sweep Voltammetry
File: d:\current work\al_oer\electrochemical test data\batch 4\400\B4_BEST_400_#3_Full-195mV.txt
Data Source:  Experiment
Instrument Model:  CHI660E
Header:
Note:

Init E (V) = 1.072

Final E (V) = 1.471

Scan Rate (V/s) = 0.010
Sample Interval (V) = 0.001
Quiet Time (sec) = 2
Sensitivity (A/V) = 0.001
Comp R (ohm) = 4.8

Results:

Channel 1:

Potential/V, Current/A
1.072,   8.581e-5
1.074,   8.803e-5
1.076,   8.162e-5
1.078,   7.832e-5
1.080,   7.359e-5
1.082,   6.983e-5
1.084,   6.655e-5
1.086,   6.406e-5
1.088,   6.146e-5
1.090,   5.964e-5
1.092,   5.799e-5
1.094,   5.624e-5
1.096,   5.509e-5
1.098,   5.422e-5
1.100,   5.360e-5
1.102,   5.190e-5
1.104,   5.102e-5
1.106,   5.047e-5
1.108,   4.983e-5
1.110,   4.917e-5
1.112,   4.939e-5
1.114,   4.874e-5
1.116,   4.822e-5
1.118,   4.760e-5
1.120,   4.730e-5
1.122,   4.696e-5
1.124,   4.650e-5
1.126,   4.618e-5
1.128,   4.590e-5
1.130,   4.585e-5
1.132,   4.554e-5
1.134,   4.529e-5
1.136,   4.510e-5
1.138,   4.506e-5
1.140,   4.493e-5
1.142,   4.460e-5
1.144,   4.470e-5
1.146,   4.459e-5
1.148,   4.434e-5
1.150,   4.420e-5
1.152,   4.410e-5
1.154,   4.420e-5
1.156,   4.420e-5
1.158,   4.394e-5
1.160,   4.388e-5
1.162,   4.399e-5
1.164,   4.392e-5
1.166,   4.376e-5
1.168,   4.360e-5
1.170,   4.357e-5
1.172,   4.347e-5
1.174,   4.360e-5
1.176,   4.342e-5
1.178,   4.352e-5
1.180,   4.346e-5
1.182,   4.345e-5
1.184,   4.329e-5
1.186,   4.344e-5
1.188,   4.329e-5
1.190,   4.308e-5
1.192,   4.304e-5
1.194,   4.315e-5
1.196,   4.298e-5
1.198,   4.288e-5
1.200,   4.281e-5
1.202,   4.286e-5
1.204,   4.272e-5
1.206,   4.252e-5
1.208,   4.259e-5
1.210,   4.253e-5
1.212,   4.244e-5
1.214,   4.222e-5
1.216,   4.214e-5
1.218,   4.212e-5
1.220,   4.202e-5
1.222,   4.181e-5
1.224,   4.171e-5
1.226,   4.175e-5
1.228,   4.154e-5
1.230,   4.151e-5
1.232,   4.134e-5
1.234,   4.150e-5
1.236,   4.124e-5
1.238,   4.098e-5
1.240,   4.103e-5
1.242,   4.107e-5
1.244,   4.095e-5
1.246,   4.092e-5
1.248,   4.069e-5
1.250,   4.085e-5
1.252,   4.075e-5
1.254,   4.053e-5
1.256,   4.053e-5
1.258,   4.061e-5
1.260,   4.056e-5
1.262,   4.042e-5
1.264,   4.032e-5
1.266,   4.058e-5
1.268,   4.043e-5
1.270,   4.056e-5
1.272,   4.067e-5
1.274,   4.075e-5
1.276,   4.080e-5
1.278,   4.078e-5
1.280,   4.064e-5
1.282,   4.086e-5
1.284,   4.098e-5
1.286,   4.101e-5
1.288,   4.109e-5
1.290,   4.143e-5
1.292,   4.152e-5
1.294,   4.162e-5
1.296,   4.172e-5
1.298,   4.230e-5
1.300,   4.233e-5
1.302,   4.245e-5
1.304,   4.291e-5
1.306,   4.334e-5
1.308,   4.362e-5
1.310,   4.402e-5
1.312,   4.430e-5
1.314,   4.497e-5
1.316,   4.547e-5
1.318,   4.593e-5
1.320,   4.667e-5
1.322,   4.747e-5
1.324,   4.818e-5
1.326,   4.891e-5
1.328,   4.993e-5
1.330,   5.115e-5
1.332,   5.227e-5
1.334,   5.334e-5
1.336,   5.516e-5
1.338,   5.676e-5
1.340,   5.854e-5
1.342,   6.059e-5
1.344,   6.283e-5
1.346,   6.581e-5
1.348,   6.870e-5
1.350,   7.177e-5
1.352,   7.571e-5
1.354,   8.010e-5
1.356,   8.471e-5
1.358,   8.982e-5
1.360,   9.563e-5
1.362,   1.027e-4
1.364,   1.098e-4
1.366,   1.180e-4
1.368,   1.277e-4
1.370,   1.384e-4
1.372,   1.523e-4
1.374,   1.645e-4
1.376,   1.793e-4
1.378,   1.963e-4
1.380,   2.149e-4
1.382,   2.357e-4
1.384,   2.589e-4
1.386,   2.851e-4
1.388,   3.139e-4
1.390,   3.411e-4
1.392,   3.828e-4
1.394,   4.207e-4
1.396,   4.637e-4
1.398,   5.115e-4
1.400,   5.576e-4
1.402,   6.236e-4
1.404,   6.867e-4
1.406,   7.566e-4
1.408,   8.286e-4
1.410,   9.137e-4
1.412,   1.005e-3
1.414,   1.093e-3
1.416,   1.213e-3
1.418,   1.331e-3
1.420,   1.470e-3
1.422,   1.610e-3
1.424,   1.756e-3
1.426,   1.923e-3
1.428,   2.086e-3
1.430,   2.287e-3
1.432,   2.466e-3
1.434,   2.696e-3
1.436,   2.942e-3
1.438,   3.174e-3
1.440,   3.401e-3
1.442,   3.722e-3
1.444,   3.991e-3
1.446,   4.312e-3
1.448,   4.598e-3
1.450,   4.947e-3
1.452,   5.272e-3
1.454,   5.723e-3
1.456,   6.150e-3
1.458,   6.542e-3
1.460,   6.936e-3
1.462,   7.317e-3
1.464,   7.730e-3
1.466,   8.290e-3
1.468,   8.588e-3
1.470,   9.277e-3
1.471,   9.399e-3

File: B4_BEST_400_#3_High_Quality(#19)-191mV.txt
Mar. 27, 2023   13:56:36
Linear Sweep Voltammetry
File: d:\current work\al_oer\electrochemical test data\batch 4\400\B4_BEST_400_#3_High_Quality(#19)-191mV.txt
Data Source:  Experiment
Instrument Model:  CHI660E
Header:
Note:

Init E (V) = 1.040

Final E (V) = 1.539

Scan Rate (V/s) = 0.010
Sample Interval (V) = 0.001
Quiet Time (sec) = 2
Sensitivity (A/V) = 0.001
Comp R (ohm) = 5.1

Results:

Channel 1:
Ep = 1.334V
ip = 1.003e-2A
Ah = 6.442e-2C

Potential/V, Current/A
1.040,   3.768e-5
1.042,   3.884e-5
1.044,   3.572e-5
1.046,   3.313e-5
1.048,   3.121e-5
1.050,   2.961e-5
1.052,   2.826e-5
1.054,   2.717e-5
1.056,   2.623e-5
1.058,   2.552e-5
1.060,   2.489e-5
1.062,   2.425e-5
1.064,   2.380e-5
1.066,   2.345e-5
1.068,   2.309e-5
1.070,   2.276e-5
1.072,   2.250e-5
1.074,   2.246e-5
1.076,   2.221e-5
1.078,   2.209e-5
1.080,   2.199e-5
1.082,   2.198e-5
1.084,   2.195e-5
1.086,   2.193e-5
1.088,   2.192e-5
1.090,   2.202e-5
1.092,   2.203e-5
1.094,   2.206e-5
1.096,   2.219e-5
1.098,   2.239e-5
1.100,   2.248e-5
1.102,   2.253e-5
1.104,   2.269e-5
1.106,   2.297e-5
1.108,   2.313e-5
1.110,   2.325e-5
1.112,   2.349e-5
1.114,   2.374e-5
1.116,   2.390e-5
1.118,   2.412e-5
1.120,   2.423e-5
1.122,   2.461e-5
1.124,   2.480e-5
1.126,   2.487e-5
1.128,   2.512e-5
1.130,   2.549e-5
1.132,   2.559e-5
1.134,   2.577e-5
1.136,   2.596e-5
1.138,   2.631e-5
1.140,   2.646e-5
1.142,   2.658e-5
1.144,   2.675e-5
1.146,   2.698e-5
1.148,   2.711e-5
1.150,   2.729e-5
1.152,   2.728e-5
1.154,   2.755e-5
1.156,   2.757e-5
1.158,   2.761e-5
1.160,   2.775e-5
1.162,   2.793e-5
1.164,   2.797e-5
1.166,   2.796e-5
1.168,   2.798e-5
1.170,   2.821e-5
1.172,   2.820e-5
1.174,   2.804e-5
1.176,   2.820e-5
1.178,   2.823e-5
1.180,   2.818e-5
1.182,   2.809e-5
1.184,   2.798e-5
1.186,   2.818e-5
1.188,   2.809e-5
1.190,   2.798e-5
1.192,   2.791e-5
1.194,   2.796e-5
1.196,   2.785e-5
1.198,   2.780e-5
1.200,   2.762e-5
1.202,   2.775e-5
1.204,   2.757e-5
1.206,   2.744e-5
1.208,   2.749e-5
1.210,   2.742e-5
1.212,   2.732e-5
1.214,   2.730e-5
1.216,   2.708e-5
1.218,   2.714e-5
1.220,   2.704e-5
1.222,   2.693e-5
1.224,   2.683e-5
1.226,   2.693e-5
1.228,   2.682e-5
1.230,   2.672e-5
1.232,   2.662e-5
1.234,   2.675e-5
1.236,   2.665e-5
1.238,   2.650e-5
1.240,   2.661e-5
1.242,   2.664e-5
1.244,   2.655e-5
1.246,   2.658e-5
1.248,   2.648e-5
1.250,   2.660e-5
1.252,   2.671e-5
1.254,   2.659e-5
1.256,   2.665e-5
1.258,   2.680e-5
1.260,   2.685e-5
1.262,   2.685e-5
1.264,   2.688e-5
1.266,   2.729e-5
1.268,   2.721e-5
1.270,   2.722e-5
1.272,   2.746e-5
1.274,   2.766e-5
1.276,   2.781e-5
1.278,   2.796e-5
1.280,   2.804e-5
1.282,   2.845e-5
1.284,   2.868e-5
1.286,   2.877e-5
1.288,   2.909e-5
1.290,   2.946e-5
1.292,   2.979e-5
1.294,   3.007e-5
1.296,   3.041e-5
1.298,   3.100e-5
1.300,   3.142e-5
1.302,   3.181e-5
1.304,   3.245e-5
1.306,   3.303e-5
1.308,   3.365e-5
1.310,   3.436e-5
1.312,   3.507e-5
1.314,   3.610e-5
1.316,   3.706e-5
1.318,   3.787e-5
1.320,   3.907e-5
1.322,   4.043e-5
1.324,   4.189e-5
1.326,   4.342e-5
1.328,   4.512e-5
1.330,   4.737e-5
1.332,   4.946e-5
1.334,   5.178e-5
1.336,   5.458e-5
1.338,   5.767e-5
1.340,   6.095e-5
1.342,   6.481e-5
1.344,   6.885e-5
1.346,   7.379e-5
1.348,   7.900e-5
1.350,   8.466e-5
1.352,   9.111e-5
1.354,   9.837e-5
1.356,   1.062e-4
1.358,   1.150e-4
1.360,   1.244e-4
1.362,   1.357e-4
1.364,   1.475e-4
1.366,   1.605e-4
1.368,   1.753e-4
1.370,   1.915e-4
1.372,   2.091e-4
1.374,   2.283e-4
1.376,   2.500e-4
1.378,   2.736e-4
1.380,   2.997e-4
1.382,   3.281e-4
1.384,   3.594e-4
1.386,   3.939e-4
1.388,   4.316e-4
1.390,   4.730e-4
1.392,   5.185e-4
1.394,   5.688e-4
1.396,   6.230e-4
1.398,   6.821e-4
1.400,   7.469e-4
1.402,   8.179e-4
1.404,   8.957e-4
1.406,   9.793e-4
1.408,   1.070e-3
1.410,   1.170e-3
1.412,   1.278e-3
1.414,   1.398e-3
1.416,   1.522e-3
1.418,   1.663e-3
1.420,   1.807e-3
1.422,   1.968e-3
1.424,   2.138e-3
1.426,   2.321e-3
1.428,   2.510e-3
1.430,   2.716e-3
1.432,   2.931e-3
1.434,   3.152e-3
1.436,   3.396e-3
1.438,   3.668e-3
1.440,   3.931e-3
1.442,   4.184e-3
1.444,   4.441e-3
1.446,   4.814e-3
1.448,   5.085e-3
1.450,   5.457e-3
1.452,   5.810e-3
1.454,   6.253e-3
1.456,   6.648e-3
1.458,   6.995e-3
1.460,   7.412e-3
1.462,   7.819e-3
1.464,   8.201e-3
1.466,   8.756e-3
1.468,   9.122e-3
1.470,   9.606e-3
1.472,   1.000e-2
1.474,   1.006e-2
1.476,   1.006e-2
1.478,   1.006e-2
1.480,   1.006e-2
1.482,   1.006e-2
1.484,   1.006e-2
1.486,   1.006e-2
1.488,   1.006e-2
1.490,   1.006e-2
1.492,   1.006e-2
1.494,   1.006e-2
1.496,   1.006e-2
1.498,   1.006e-2
1.500,   1.006e-2
1.502,   1.006e-2
1.504,   1.006e-2
1.506,   1.006e-2
1.508,   1.006e-2
1.510,   1.006e-2
1.512,   1.006e-2
1.514,   1.006e-2
1.516,   1.006e-2
1.518,   1.006e-2
1.520,   1.006e-2
1.522,   1.006e-2
1.524,   1.006e-2
1.526,   1.006e-2
1.528,   1.006e-2
1.530,   1.006e-2
1.532,   1.006e-2
1.534,   1.006e-2
1.536,   1.006e-2
1.538,   1.006e-2
1.539,   1.006e-2

File: B4_BEST_400_#5_Full-210mV.txt
Mar. 27, 2023   14:21:23
Linear Sweep Voltammetry
File: d:\current work\al_oer\electrochemical test data\batch 4\400\B4_BEST_400_#5_Full-210mV.txt
Data Source:  Experiment
Instrument Model:  CHI660E
Header:
Note:

Init E (V) = 1.081

Final E (V) = 1.508

Scan Rate (V/s) = 0.010
Sample Interval (V) = 0.001
Quiet Time (sec) = 2
Sensitivity (A/V) = 0.001
Comp R (ohm) = 5.8

Results:

Channel 1:

Potential/V, Current/A
1.081,   9.747e-5
1.083,   9.075e-5
1.085,   8.210e-5
1.087,   7.519e-5
1.089,   6.970e-5
1.091,   6.522e-5
1.093,   6.145e-5
1.095,   5.832e-5
1.097,   5.573e-5
1.099,   5.354e-5
1.101,   5.159e-5
1.103,   4.976e-5
1.105,   4.824e-5
1.107,   4.692e-5
1.109,   4.575e-5
1.111,   4.462e-5
1.113,   4.369e-5
1.115,   4.292e-5
1.117,   4.210e-5
1.119,   4.132e-5
1.121,   4.070e-5
1.123,   4.013e-5
1.125,   3.959e-5
1.127,   3.914e-5
1.129,   3.863e-5
1.131,   3.825e-5
1.133,   3.790e-5
1.135,   3.757e-5
1.137,   3.728e-5
1.139,   3.704e-5
1.141,   3.681e-5
1.143,   3.647e-5
1.145,   3.628e-5
1.147,   3.611e-5
1.149,   3.591e-5
1.151,   3.568e-5
1.153,   3.562e-5
1.155,   3.546e-5
1.157,   3.532e-5
1.159,   3.517e-5
1.161,   3.507e-5
1.163,   3.497e-5
1.165,   3.496e-5
1.167,   3.478e-5
1.169,   3.470e-5
1.171,   3.472e-5
1.173,   3.460e-5
1.175,   3.455e-5
1.177,   3.446e-5
1.179,   3.448e-5
1.181,   3.445e-5
1.183,   3.442e-5
1.185,   3.440e-5
1.187,   3.439e-5
1.189,   3.438e-5
1.191,   3.440e-5
1.193,   3.436e-5
1.195,   3.443e-5
1.197,   3.437e-5
1.199,   3.438e-5
1.201,   3.446e-5
1.203,   3.450e-5
1.205,   3.455e-5
1.207,   3.457e-5
1.209,   3.458e-5
1.211,   3.470e-5
1.213,   3.471e-5
1.215,   3.479e-5
1.217,   3.488e-5
1.219,   3.493e-5
1.221,   3.505e-5
1.223,   3.509e-5
1.225,   3.513e-5
1.227,   3.524e-5
1.229,   3.534e-5
1.231,   3.538e-5
1.233,   3.545e-5
1.235,   3.558e-5
1.237,   3.571e-5
1.239,   3.577e-5
1.241,   3.586e-5
1.243,   3.606e-5
1.245,   3.614e-5
1.247,   3.622e-5
1.249,   3.636e-5
1.251,   3.654e-5
1.253,   3.670e-5
1.255,   3.682e-5
1.257,   3.691e-5
1.259,   3.713e-5
1.261,   3.724e-5
1.263,   3.737e-5
1.265,   3.750e-5
1.267,   3.769e-5
1.269,   3.783e-5
1.271,   3.798e-5
1.273,   3.814e-5
1.275,   3.841e-5
1.277,   3.859e-5
1.279,   3.875e-5
1.281,   3.902e-5
1.283,   3.929e-5
1.285,   3.947e-5
1.287,   3.970e-5
1.289,   3.993e-5
1.291,   4.033e-5
1.293,   4.061e-5
1.295,   4.085e-5
1.297,   4.115e-5
1.299,   4.147e-5
1.301,   4.182e-5
1.303,   4.214e-5
1.305,   4.249e-5
1.307,   4.303e-5
1.309,   4.335e-5
1.311,   4.372e-5
1.313,   4.417e-5
1.315,   4.471e-5
1.317,   4.516e-5
1.319,   4.565e-5
1.321,   4.612e-5
1.323,   4.681e-5
1.325,   4.737e-5
1.327,   4.797e-5
1.329,   4.866e-5
1.331,   4.942e-5
1.333,   5.019e-5
1.335,   5.090e-5
1.337,   5.177e-5
1.339,   5.280e-5
1.341,   5.379e-5
1.343,   5.482e-5
1.345,   5.601e-5
1.347,   5.720e-5
1.349,   5.868e-5
1.351,   6.022e-5
1.353,   6.179e-5
1.355,   6.382e-5
1.357,   6.588e-5
1.359,   6.823e-5
1.361,   7.079e-5
1.363,   7.392e-5
1.365,   7.738e-5
1.367,   8.107e-5
1.369,   8.530e-5
1.371,   9.020e-5
1.373,   9.568e-5
1.375,   1.019e-4
1.377,   1.091e-4
1.379,   1.173e-4
1.381,   1.264e-4
1.383,   1.368e-4
1.385,   1.485e-4
1.387,   1.619e-4
1.389,   1.768e-4
1.391,   1.937e-4
1.393,   2.124e-4
1.395,   2.336e-4
1.397,   2.573e-4
1.399,   2.836e-4
1.401,   3.128e-4
1.403,   3.454e-4
1.405,   3.811e-4
1.407,   4.207e-4
1.409,   4.643e-4
1.411,   5.123e-4
1.413,   5.648e-4
1.415,   6.225e-4
1.417,   6.853e-4
1.419,   7.540e-4
1.421,   8.284e-4
1.423,   9.095e-4
1.425,   9.970e-4
1.427,   1.092e-3
1.429,   1.194e-3
1.431,   1.304e-3
1.433,   1.422e-3
1.435,   1.548e-3
1.437,   1.682e-3
1.439,   1.828e-3
1.441,   1.980e-3
1.443,   2.141e-3
1.445,   2.311e-3
1.447,   2.487e-3
1.449,   2.673e-3
1.451,   2.870e-3
1.453,   3.076e-3
1.455,   3.290e-3
1.457,   3.512e-3
1.459,   3.740e-3
1.461,   3.976e-3
1.463,   4.230e-3
1.465,   4.476e-3
1.467,   4.724e-3
1.469,   4.983e-3
1.471,   5.241e-3
1.473,   5.503e-3
1.475,   5.770e-3
1.477,   6.030e-3
1.479,   6.294e-3
1.481,   6.576e-3
1.483,   6.841e-3
1.485,   7.144e-3
1.487,   7.482e-3
1.489,   7.722e-3
1.491,   7.955e-3
1.493,   8.237e-3
1.495,   8.429e-3
1.497,   8.695e-3
1.499,   8.939e-3
1.501,   9.128e-3
1.503,   9.350e-3
1.505,   9.547e-3
1.507,   9.771e-3
1.508,   9.870e-3

File: B4_BEST_400_#5_High_Quality(#21)-204mV.txt
Mar. 26, 2023   15:07:38
Linear Sweep Voltammetry
File: d:\current work\al_oer\electrochemical test data\batch 4\400\B4_BEST_400_#5_High_Quality(#21)-204mV.txt
Data Source:  Experiment
Instrument Model:  CHI660E
Header:
Note:

Init E (V) = 1.051

Final E (V) = 1.550

Scan Rate (V/s) = 0.010
Sample Interval (V) = 0.001
Quiet Time (sec) = 2
Sensitivity (A/V) = 0.001
Comp R (ohm) = 5.5

Results:

Channel 1:
Ep = 1.341V
ip = 1.004e-2A
Ah = 7.077e-2C

Potential/V, Current/A
1.051,   2.851e-5
1.053,   2.916e-5
1.055,   2.684e-5
1.057,   2.501e-5
1.059,   2.356e-5
1.061,   2.239e-5
1.063,   2.136e-5
1.065,   2.052e-5
1.067,   2.130e-5
1.069,   2.165e-5
1.071,   2.047e-5
1.073,   2.017e-5
1.075,   1.910e-5
1.077,   1.838e-5
1.079,   1.782e-5
1.081,   1.754e-5
1.083,   1.725e-5
1.085,   1.702e-5
1.087,   1.669e-5
1.089,   1.664e-5
1.091,   1.663e-5
1.093,   1.644e-5
1.095,   1.640e-5
1.097,   1.622e-5
1.099,   1.614e-5
1.101,   1.622e-5
1.103,   1.616e-5
1.105,   1.613e-5
1.107,   1.615e-5
1.109,   1.625e-5
1.111,   1.636e-5
1.113,   1.626e-5
1.115,   1.635e-5
1.117,   1.654e-5
1.119,   1.667e-5
1.121,   1.655e-5
1.123,   1.677e-5
1.125,   1.678e-5
1.127,   1.683e-5
1.129,   1.696e-5
1.131,   1.704e-5
1.133,   1.721e-5
1.135,   1.729e-5
1.137,   1.744e-5
1.139,   1.750e-5
1.141,   1.771e-5
1.143,   1.782e-5
1.145,   1.789e-5
1.147,   1.801e-5
1.149,   1.821e-5
1.151,   1.826e-5
1.153,   1.833e-5
1.155,   1.851e-5
1.157,   1.869e-5
1.159,   1.874e-5
1.161,   1.882e-5
1.163,   1.888e-5
1.165,   1.902e-5
1.167,   1.912e-5
1.169,   1.916e-5
1.171,   1.923e-5
1.173,   1.938e-5
1.175,   1.939e-5
1.177,   1.945e-5
1.179,   1.947e-5
1.181,   1.962e-5
1.183,   1.960e-5
1.185,   1.961e-5
1.187,   1.970e-5
1.189,   1.974e-5
1.191,   1.971e-5
1.193,   1.971e-5
1.195,   1.970e-5
1.197,   1.979e-5
1.199,   1.980e-5
1.201,   1.972e-5
1.203,   1.975e-5
1.205,   1.980e-5
1.207,   1.974e-5
1.209,   1.967e-5
1.211,   1.968e-5
1.213,   1.982e-5
1.215,   1.972e-5
1.217,   1.963e-5
1.219,   1.961e-5
1.221,   1.969e-5
1.223,   1.962e-5
1.225,   1.968e-5
1.227,   1.958e-5
1.229,   1.964e-5
1.231,   1.962e-5
1.233,   1.950e-5
1.235,   1.948e-5
1.237,   1.955e-5
1.239,   1.954e-5
1.241,   1.951e-5
1.243,   1.946e-5
1.245,   1.956e-5
1.247,   1.954e-5
1.249,   1.953e-5
1.251,   1.954e-5
1.253,   1.959e-5
1.255,   1.960e-5
1.257,   1.960e-5
1.259,   1.959e-5
1.261,   1.972e-5
1.263,   1.975e-5
1.265,   1.971e-5
1.267,   1.981e-5
1.269,   1.995e-5
1.271,   1.995e-5
1.273,   2.002e-5
1.275,   2.004e-5
1.277,   2.032e-5
1.279,   2.030e-5
1.281,   2.035e-5
1.283,   2.050e-5
1.285,   2.066e-5
1.287,   2.080e-5
1.289,   2.096e-5
1.291,   2.103e-5
1.293,   2.134e-5
1.295,   2.144e-5
1.297,   2.161e-5
1.299,   2.184e-5
1.301,   2.212e-5
1.303,   2.241e-5
1.305,   2.262e-5
1.307,   2.290e-5
1.309,   2.335e-5
1.311,   2.366e-5
1.313,   2.399e-5
1.315,   2.449e-5
1.317,   2.499e-5
1.319,   2.550e-5
1.321,   2.606e-5
1.323,   2.667e-5
1.325,   2.744e-5
1.327,   2.830e-5
1.329,   2.911e-5
1.331,   3.007e-5
1.333,   3.124e-5
1.335,   3.241e-5
1.337,   3.369e-5
1.339,   3.524e-5
1.341,   3.711e-5
1.343,   3.878e-5
1.345,   4.080e-5
1.347,   4.322e-5
1.349,   4.599e-5
1.351,   4.884e-5
1.353,   5.211e-5
1.355,   5.570e-5
1.357,   5.990e-5
1.359,   6.438e-5
1.361,   6.930e-5
1.363,   7.490e-5
1.365,   8.131e-5
1.367,   8.831e-5
1.369,   9.592e-5
1.371,   1.045e-4
1.373,   1.143e-4
1.375,   1.248e-4
1.377,   1.363e-4
1.379,   1.495e-4
1.381,   1.642e-4
1.383,   1.798e-4
1.385,   1.972e-4
1.387,   2.164e-4
1.389,   2.379e-4
1.391,   2.614e-4
1.393,   2.871e-4
1.395,   3.157e-4
1.397,   3.473e-4
1.399,   3.817e-4
1.401,   4.195e-4
1.403,   4.612e-4
1.405,   5.074e-4
1.407,   5.577e-4
1.409,   6.118e-4
1.411,   6.715e-4
1.413,   7.370e-4
1.415,   8.083e-4
1.417,   8.859e-4
1.419,   9.705e-4
1.421,   1.061e-3
1.423,   1.162e-3
1.425,   1.269e-3
1.427,   1.389e-3
1.429,   1.511e-3
1.431,   1.646e-3
1.433,   1.793e-3
1.435,   1.943e-3
1.437,   2.104e-3
1.439,   2.296e-3
1.441,   2.486e-3
1.443,   2.683e-3
1.445,   2.889e-3
1.447,   3.119e-3
1.449,   3.327e-3
1.451,   3.587e-3
1.453,   3.843e-3
1.455,   4.095e-3
1.457,   4.356e-3
1.459,   4.640e-3
1.461,   4.947e-3
1.463,   5.221e-3
1.465,   5.616e-3
1.467,   5.901e-3
1.469,   6.138e-3
1.471,   6.497e-3
1.473,   6.889e-3
1.475,   7.274e-3
1.477,   7.600e-3
1.479,   7.870e-3
1.481,   8.182e-3
1.483,   8.543e-3
1.485,   9.032e-3
1.487,   9.486e-3
1.489,   9.844e-3
1.491,   1.006e-2
1.493,   1.006e-2
1.495,   1.006e-2
1.497,   1.006e-2
1.499,   1.006e-2
1.501,   1.006e-2
1.503,   1.006e-2
1.505,   1.006e-2
1.507,   1.006e-2
1.509,   1.006e-2
1.511,   1.006e-2
1.513,   1.006e-2
1.515,   1.006e-2
1.517,   1.006e-2
1.519,   1.006e-2
1.521,   1.006e-2
1.523,   1.006e-2
1.525,   1.006e-2
1.527,   1.006e-2
1.529,   1.006e-2
1.531,   1.006e-2
1.533,   1.006e-2
1.535,   1.006e-2
1.537,   1.006e-2
1.539,   1.006e-2
1.541,   1.006e-2
1.543,   1.006e-2
1.545,   1.006e-2
1.547,   1.006e-2
1.549,   1.006e-2
1.550,   1.006e-2