Folder: DASH/Experimental Records and Raw Data/batch4/final400 (part 2)

File: B4_BEST_400_#6_Full-205mV.txt
Mar. 27, 2023   15:43:12
Linear Sweep Voltammetry
File: d:\current work\al_oer\electrochemical test data\batch 4\400\B4_BEST_400_#6_Full-205mV.txt
Data Source:  Experiment
Instrument Model:  CHI660E
Header:
Note:

Init E (V) = 1.076

Final E (V) = 1.503

Scan Rate (V/s) = 0.010
Sample Interval (V) = 0.001
Quiet Time (sec) = 2
Sensitivity (A/V) = 0.001
Comp R (ohm) = 5.8

Results:

Channel 1:

Potential/V, Current/A
1.076,  	1.004E-04
1.078,  	9.347E-05
1.080,  	8.210E-05
1.082,  	7.444E-05
1.084,  	7.179E-05
1.086,  	6.718E-05
1.088,  	6.022E-05
1.090,  	5.657E-05
1.092,  	5.462E-05
1.094,  	5.408E-05
1.096,  	5.159E-05
1.098,  	4.926E-05
1.100,  	4.920E-05
1.102,  	4.645E-05
1.104,  	4.712E-05
1.106,  	4.551E-05
1.108,  	4.456E-05
1.110,  	4.378E-05
1.112,  	4.168E-05
1.114,  	4.091E-05
1.116,  	3.948E-05
1.118,  	4.093E-05
1.120,  	3.919E-05
1.122,  	3.875E-05
1.124,  	3.863E-05
1.126,  	3.940E-05
1.128,  	3.866E-05
1.130,  	3.757E-05
1.132,  	3.691E-05
1.134,  	3.741E-05
1.136,  	3.644E-05
1.138,  	3.611E-05
1.140,  	3.737E-05
1.142,  	3.719E-05
1.144,  	3.627E-05
1.146,  	3.675E-05
1.148,  	3.526E-05
1.150,  	3.617E-05
1.152,  	3.567E-05
1.154,  	3.447E-05
1.156,  	3.507E-05
1.158,  	3.602E-05
1.160,  	3.601E-05
1.162,  	3.443E-05
1.164,  	3.366E-05
1.166,  	3.368E-05
1.168,  	3.460E-05
1.170,  	3.455E-05
1.172,  	3.377E-05
1.174,  	3.482E-05
1.176,  	3.376E-05
1.178,  	3.476E-05
1.180,  	3.406E-05
1.182,  	3.370E-05
1.184,  	3.369E-05
1.186,  	3.337E-05
1.188,  	3.470E-05
1.190,  	3.546E-05
1.192,  	3.540E-05
1.194,  	3.335E-05
1.196,  	3.412E-05
1.198,  	3.519E-05
1.200,  	3.559E-05
1.202,  	3.457E-05
1.204,  	3.354E-05
1.206,  	3.505E-05
1.208,  	3.540E-05
1.210,  	3.549E-05
1.212,  	3.418E-05
1.214,  	3.493E-05
1.216,  	3.400E-05
1.218,  	3.439E-05
1.220,  	3.618E-05
1.222,  	3.630E-05
1.224,  	3.640E-05
1.226,  	3.609E-05
1.228,  	3.616E-05
1.230,  	3.629E-05
1.232,  	3.500E-05
1.234,  	3.613E-05
1.236,  	3.586E-05
1.238,  	3.570E-05
1.240,  	3.686E-05
1.242,  	3.731E-05
1.244,  	3.672E-05
1.246,  	3.727E-05
1.248,  	3.780E-05
1.250,  	3.756E-05
1.252,  	3.728E-05
1.254,  	3.787E-05
1.256,  	3.836E-05
1.258,  	3.774E-05
1.260,  	3.675E-05
1.262,  	3.694E-05
1.264,  	3.896E-05
1.266,  	3.722E-05
1.268,  	3.738E-05
1.270,  	3.918E-05
1.272,  	3.820E-05
1.274,  	3.759E-05
1.276,  	3.980E-05
1.278,  	3.890E-05
1.280,  	3.829E-05
1.282,  	3.851E-05
1.284,  	4.033E-05
1.286,  	4.073E-05
1.288,  	3.980E-05
1.290,  	3.962E-05
1.292,  	3.992E-05
1.294,  	4.230E-05
1.296,  	4.140E-05
1.298,  	4.340E-05
1.300,  	4.334E-05
1.302,  	4.260E-05
1.304,  	4.248E-05
1.306,  	4.503E-05
1.308,  	4.373E-05
1.310,  	4.560E-05
1.312,  	4.381E-05
1.314,  	4.519E-05
1.316,  	4.750E-05
1.318,  	4.821E-05
1.320,  	4.879E-05
1.322,  	4.701E-05
1.324,  	4.915E-05
1.326,  	5.090E-05
1.328,  	5.019E-05
1.330,  	5.192E-05
1.332,  	5.332E-05
1.334,  	5.280E-05
1.336,  	5.218E-05
1.338,  	5.537E-05
1.340,  	5.545E-05
1.342,  	5.663E-05
1.344,  	5.751E-05
1.346,  	5.841E-05
1.348,  	6.364E-05
1.350,  	6.510E-05
1.352,  	6.390E-05
1.354,  	6.823E-05
1.356,  	6.937E-05
1.358,  	7.244E-05
1.360,  	7.815E-05
1.362,  	7.864E-05
1.364,  	8.615E-05
1.366,  	8.749E-05
1.368,  	9.472E-05
1.370,  	1.019E-04
1.372,  	1.124E-04
1.374,  	1.161E-04
1.376,  	1.289E-04
1.378,  	1.327E-04
1.380,  	1.455E-04
1.382,  	1.651E-04
1.384,  	1.768E-04
1.386,  	1.976E-04
1.388,  	2.188E-04
1.390,  	2.359E-04
1.392,  	2.624E-04
1.394,  	2.836E-04
1.396,  	3.034E-04
1.398,  	3.523E-04
1.400,  	3.773E-04
1.402,  	4.291E-04
1.404,  	4.550E-04
1.406,  	5.123E-04
1.408,  	5.817E-04
1.410,  	6.350E-04
1.412,  	6.784E-04
1.414,  	7.540E-04
1.416,  	8.118E-04
1.418,  	9.004E-04
1.420,  	9.970E-04
1.422,  	1.070E-03
1.424,  	1.206E-03
1.426,  	1.265E-03
1.428,  	1.436E-03
1.430,  	1.502E-03
1.432,  	1.732E-03
1.434,  	1.828E-03
1.436,  	1.960E-03
1.438,  	2.120E-03
1.440,  	2.288E-03
1.442,  	2.512E-03
1.444,  	2.726E-03
1.446,  	2.841E-03
1.448,  	3.107E-03
1.450,  	3.224E-03
1.452,  	3.442E-03
1.454,  	3.815E-03
1.456,  	4.056E-03
1.458,  	4.145E-03
1.460,  	4.386E-03
1.462,  	4.771E-03
1.464,  	5.083E-03
1.466,  	5.293E-03
1.468,  	5.448E-03
1.470,  	5.828E-03
1.472,  	6.151E-03
1.474,  	6.483E-03
1.476,  	6.379E-03
1.478,  	6.841E-03
1.480,  	7.287E-03
1.482,  	7.557E-03
1.484,  	7.645E-03
1.486,  	8.194E-03
1.488,  	7.990E-03
1.490,  	8.513E-03
1.492,  	8.695E-03
1.494,  	9.118E-03
1.496,  	9.402E-03
1.498,  	9.070E-03
1.500,  	9.356E-03
1.502,  	9.673E-03
1.503,  	1.017E-02

File: B4_BEST_400_#7_High_Quality(#23)-214mV.txt
Mar. 26, 2023   18:10:57
Linear Sweep Voltammetry
File: d:\current work\al_oer\electrochemical test data\batch 4\400\B4_BEST_400_#7_High_Quality(#23)-214mV.txt
Data Source:  Experiment
Instrument Model:  CHI660E
Header:
Note:

Init E (V) = 1.056

Final E (V) = 1.555

Scan Rate (V/s) = 0.010
Sample Interval (V) = 0.001
Quiet Time (sec) = 2
Sensitivity (A/V) = 0.001
Comp R (ohm) = 5.0

Results:

Channel 1:
Ep = 1.342V
ip = 1.003e-2A
Ah = 6.612e-2C

Potential/V, Current/A
1.056,   3.206e-5
1.058,   3.334e-5
1.060,   3.068e-5
1.062,   2.855e-5
1.064,   2.697e-5
1.066,   2.561e-5
1.068,   2.450e-5
1.070,   2.354e-5
1.072,   2.277e-5
1.074,   2.219e-5
1.076,   2.167e-5
1.078,   2.112e-5
1.080,   2.072e-5
1.082,   2.044e-5
1.084,   2.014e-5
1.086,   1.984e-5
1.088,   1.961e-5
1.090,   1.954e-5
1.092,   1.931e-5
1.094,   1.919e-5
1.096,   1.913e-5
1.098,   1.909e-5
1.100,   1.905e-5
1.102,   1.902e-5
1.104,   1.897e-5
1.106,   1.903e-5
1.108,   1.905e-5
1.110,   1.902e-5
1.112,   1.913e-5
1.114,   1.929e-5
1.116,   1.929e-5
1.118,   1.937e-5
1.120,   1.948e-5
1.122,   1.967e-5
1.124,   1.972e-5
1.126,   1.983e-5
1.128,   2.007e-5
1.130,   2.018e-5
1.132,   2.028e-5
1.134,   2.039e-5
1.136,   2.052e-5
1.138,   2.076e-5
1.140,   2.089e-5
1.142,   2.100e-5
1.144,   2.110e-5
1.146,   2.136e-5
1.148,   2.141e-5
1.150,   2.154e-5
1.152,   2.162e-5
1.154,   2.189e-5
1.156,   2.200e-5
1.158,   2.201e-5
1.160,   2.217e-5
1.162,   2.237e-5
1.164,   2.238e-5
1.166,   2.252e-5
1.168,   2.252e-5
1.170,   2.270e-5
1.172,   2.274e-5
1.174,   2.270e-5
1.176,   2.277e-5
1.178,   2.292e-5
1.180,   2.291e-5
1.182,   2.288e-5
1.184,   2.289e-5
1.186,   2.307e-5
1.188,   2.303e-5
1.190,   2.293e-5
1.192,   2.298e-5
1.194,   2.304e-5
1.196,   2.296e-5
1.198,   2.292e-5
1.200,   2.282e-5
1.202,   2.295e-5
1.204,   2.288e-5
1.206,   2.277e-5
1.208,   2.273e-5
1.210,   2.281e-5
1.212,   2.273e-5
1.214,   2.260e-5
1.216,   2.252e-5
1.218,   2.268e-5
1.220,   2.255e-5
1.222,   2.240e-5
1.224,   2.242e-5
1.226,   2.241e-5
1.228,   2.236e-5
1.230,   2.230e-5
1.232,   2.218e-5
1.234,   2.224e-5
1.236,   2.216e-5
1.238,   2.203e-5
1.240,   2.204e-5
1.242,   2.207e-5
1.244,   2.201e-5
1.246,   2.192e-5
1.248,   2.188e-5
1.250,   2.200e-5
1.252,   2.194e-5
1.254,   2.182e-5
1.256,   2.193e-5
1.258,   2.199e-5
1.260,   2.191e-5
1.262,   2.190e-5
1.264,   2.191e-5
1.266,   2.200e-5
1.268,   2.209e-5
1.270,   2.199e-5
1.272,   2.209e-5
1.274,   2.221e-5
1.276,   2.224e-5
1.278,   2.227e-5
1.280,   2.233e-5
1.282,   2.262e-5
1.284,   2.260e-5
1.286,   2.264e-5
1.288,   2.279e-5
1.290,   2.296e-5
1.292,   2.305e-5
1.294,   2.324e-5
1.296,   2.331e-5
1.298,   2.360e-5
1.300,   2.374e-5
1.302,   2.390e-5
1.304,   2.409e-5
1.306,   2.446e-5
1.308,   2.463e-5
1.310,   2.485e-5
1.312,   2.511e-5
1.314,   2.560e-5
1.316,   2.590e-5
1.318,   2.618e-5
1.320,   2.674e-5
1.322,   2.713e-5
1.324,   2.760e-5
1.326,   2.813e-5
1.328,   2.868e-5
1.330,   2.942e-5
1.332,   3.008e-5
1.334,   3.078e-5
1.336,   3.167e-5
1.338,   3.271e-5
1.340,   3.369e-5
1.342,   3.485e-5
1.344,   3.620e-5
1.346,   3.774e-5
1.348,   3.918e-5
1.350,   4.081e-5
1.352,   4.289e-5
1.354,   4.519e-5
1.356,   4.767e-5
1.358,   5.033e-5
1.360,   5.323e-5
1.362,   5.677e-5
1.364,   6.040e-5
1.366,   6.440e-5
1.368,   6.894e-5
1.370,   7.423e-5
1.372,   7.992e-5
1.374,   8.603e-5
1.376,   9.280e-5
1.378,   1.006e-4
1.380,   1.089e-4
1.382,   1.180e-4
1.384,   1.282e-4
1.386,   1.396e-4
1.388,   1.517e-4
1.390,   1.654e-4
1.392,   1.801e-4
1.394,   1.967e-4
1.396,   2.147e-4
1.398,   2.342e-4
1.400,   2.559e-4
1.402,   2.800e-4
1.404,   3.063e-4
1.406,   3.347e-4
1.408,   3.662e-4
1.410,   4.015e-4
1.412,   4.393e-4
1.414,   4.810e-4
1.416,   5.266e-4
1.418,   5.772e-4
1.420,   6.322e-4
1.422,   6.927e-4
1.424,   7.588e-4
1.426,   8.316e-4
1.428,   9.117e-4
1.430,   9.976e-4
1.432,   1.093e-3
1.434,   1.198e-3
1.436,   1.312e-3
1.438,   1.435e-3
1.440,   1.568e-3
1.442,   1.714e-3
1.444,   1.875e-3
1.446,   2.048e-3
1.448,   2.238e-3
1.450,   2.436e-3
1.452,   2.641e-3
1.454,   2.865e-3
1.456,   3.102e-3
1.458,   3.360e-3
1.460,   3.610e-3
1.462,   3.878e-3
1.464,   4.168e-3
1.466,   4.447e-3
1.468,   4.741e-3
1.470,   5.069e-3
1.472,   5.347e-3
1.474,   5.654e-3
1.476,   6.043e-3
1.478,   6.399e-3
1.480,   6.736e-3
1.482,   7.069e-3
1.484,   7.508e-3
1.486,   7.901e-3
1.488,   8.312e-3
1.490,   8.707e-3
1.492,   9.087e-3
1.494,   9.537e-3
1.496,   9.998e-3
1.498,   1.006e-2
1.500,   1.006e-2
1.502,   1.006e-2
1.504,   1.006e-2
1.506,   1.006e-2
1.508,   1.006e-2
1.510,   1.006e-2
1.512,   1.006e-2
1.514,   1.006e-2
1.516,   1.006e-2
1.518,   1.006e-2
1.520,   1.006e-2
1.522,   1.006e-2
1.524,   1.006e-2
1.526,   1.006e-2
1.528,   1.006e-2
1.530,   1.006e-2
1.532,   1.006e-2
1.534,   1.006e-2
1.536,   1.006e-2
1.538,   1.006e-2
1.540,   1.006e-2
1.542,   1.006e-2
1.544,   1.006e-2
1.546,   1.006e-2
1.548,   1.006e-2
1.550,   1.006e-2
1.552,   1.006e-2
1.554,   1.006e-2
1.555,   1.006e-2

File: B4_VARIANCE_400_#1_Full(#9)-378mV.txt
Mar. 28, 2023   15:52:41
Linear Sweep Voltammetry
File: d:\current work\al_oer\electrochemical test data\batch 4\400\B4_VARIANCE_400_#1_Full(#9)-378mV.txt
Data Source:  Experiment
Instrument Model:  CHI660E
Header:
Note:

Init E (V) = 1.110

Final E (V) = 1.609

Scan Rate (V/s) = 0.010
Sample Interval (V) = 0.001
Quiet Time (sec) = 2
Sensitivity (A/V) = 0.001
Comp R (ohm) = 5.2

Results:

Channel 1:

Potential/V, Current/A
1.11,   1.610E-05
1.112,   1.456E-05
1.114,   1.287E-05
1.116,   1.157E-05
1.118,   1.055E-05
1.12,   9.669E-06
1.122,   9.016E-06
1.124,   8.384E-06
1.126,   7.926E-06
1.128,   7.533E-06
1.13,   7.231E-06
1.132,   6.877E-06
1.134,   6.561E-06
1.136,   6.339E-06
1.138,   6.191E-06
1.14,   5.951E-06
1.142,   5.798E-06
1.144,   5.661E-06
1.146,   5.466E-06
1.148,   5.427E-06
1.15,   5.303E-06
1.152,   5.181E-06
1.154,   5.090E-06
1.156,   5.072E-06
1.158,   4.972E-06
1.16,   4.932E-06
1.162,   4.837E-06
1.164,   4.770E-06
1.166,   4.723E-06
1.168,   4.687E-06
1.17,   4.622E-06
1.172,   4.622E-06
1.174,   4.535E-06
1.176,   4.583E-06
1.178,   4.527E-06
1.18,   4.513E-06
1.182,   4.447E-06
1.184,   4.456E-06
1.186,   4.427E-06
1.188,   4.421E-06
1.19,   4.381E-06
1.192,   4.359E-06
1.194,   4.385E-06
1.196,   4.340E-06
1.198,   4.368E-06
1.2,   4.341E-06
1.202,   4.335E-06
1.204,   4.365E-06
1.206,   4.325E-06
1.208,   4.329E-06
1.21,   4.310E-06
1.212,   4.314E-06
1.214,   4.260E-06
1.216,   4.347E-06
1.218,   4.299E-06
1.22,   4.353E-06
1.222,   4.276E-06
1.224,   4.300E-06
1.226,   4.302E-06
1.228,   4.314E-06
1.23,   4.310E-06
1.232,   4.329E-06
1.234,   4.356E-06
1.236,   4.319E-06
1.238,   4.337E-06
1.24,   4.319E-06
1.242,   4.316E-06
1.244,   4.365E-06
1.246,   4.367E-06
1.248,   4.374E-06
1.25,   4.370E-06
1.252,   4.326E-06
1.254,   4.346E-06
1.256,   4.448E-06
1.258,   4.432E-06
1.26,   4.387E-06
1.262,   4.415E-06
1.264,   4.376E-06
1.266,   4.411E-06
1.268,   4.447E-06
1.27,   4.415E-06
1.272,   4.489E-06
1.274,   4.448E-06
1.276,   4.418E-06
1.278,   4.447E-06
1.28,   4.480E-06
1.282,   4.448E-06
1.284,   4.474E-06
1.286,   4.506E-06
1.288,   4.527E-06
1.29,   4.461E-06
1.292,   4.495E-06
1.294,   4.524E-06
1.296,   4.500E-06
1.298,   4.538E-06
1.3,   4.577E-06
1.302,   4.589E-06
1.304,   4.551E-06
1.306,   4.587E-06
1.308,   4.590E-06
1.31,   4.604E-06
1.312,   4.652E-06
1.314,   4.693E-06
1.316,   4.643E-06
1.318,   4.654E-06
1.32,   4.705E-06
1.322,   4.693E-06
1.324,   4.784E-06
1.326,   4.716E-06
1.328,   4.772E-06
1.33,   4.834E-06
1.332,   4.841E-06
1.334,   4.855E-06
1.336,   4.861E-06
1.338,   4.904E-06
1.34,   4.926E-06
1.342,   4.915E-06
1.344,   5.001E-06
1.346,   5.013E-06
1.348,   5.068E-06
1.35,   5.117E-06
1.352,   5.114E-06
1.354,   5.155E-06
1.356,   5.184E-06
1.358,   5.259E-06
1.36,   5.299E-06
1.362,   5.342E-06
1.364,   5.342E-06
1.366,   5.379E-06
1.368,   5.466E-06
1.37,   5.505E-06
1.372,   5.534E-06
1.374,   5.599E-06
1.376,   5.672E-06
1.378,   5.688E-06
1.38,   5.724E-06
1.382,   5.800E-06
1.384,   5.895E-06
1.386,   5.940E-06
1.388,   5.963E-06
1.39,   6.045E-06
1.392,   6.180E-06
1.394,   6.260E-06
1.396,   6.363E-06
1.398,   6.428E-06
1.4,   6.576E-06
1.402,   6.683E-06
1.404,   6.786E-06
1.406,   6.878E-06
1.408,   6.969E-06
1.41,   7.108E-06
1.412,   7.289E-06
1.414,   7.450E-06
1.416,   7.627E-06
1.418,   7.831E-06
1.42,   8.045E-06
1.422,   8.266E-06
1.424,   8.533E-06
1.426,   8.764E-06
1.428,   9.080E-06
1.43,   9.418E-06
1.432,   9.746E-06
1.434,   1.012E-05
1.436,   1.057E-05
1.438,   1.106E-05
1.44,   1.159E-05
1.442,   1.205E-05
1.444,   1.263E-05
1.446,   1.330E-05
1.448,   1.402E-05
1.45,   1.490E-05
1.452,   1.570E-05
1.454,   1.666E-05
1.456,   1.782E-05
1.458,   1.895E-05
1.46,   2.029E-05
1.462,   2.170E-05
1.464,   2.337E-05
1.466,   2.513E-05
1.468,   2.709E-05
1.47,   2.925E-05
1.472,   3.171E-05
1.474,   3.437E-05
1.476,   3.739E-05
1.478,   4.065E-05
1.48,   4.432E-05
1.482,   4.830E-05
1.484,   5.273E-05
1.486,   5.747E-05
1.488,   6.282E-05
1.49,   6.875E-05
1.492,   7.535E-05
1.494,   8.257E-05
1.496,   9.037E-05
1.498,   9.901E-05
1.5,   1.087E-04
1.502,   1.193E-04
1.504,   1.306E-04
1.506,   1.429E-04
1.508,   1.561E-04
1.51,   1.706E-04
1.512,   1.863E-04
1.514,   2.029E-04
1.516,   2.209E-04
1.518,   2.401E-04
1.52,   2.605E-04
1.522,   2.818E-04
1.524,   3.035E-04
1.526,   3.256E-04
1.528,   3.479E-04
1.53,   3.712E-04
1.532,   3.952E-04
1.534,   4.192E-04
1.536,   4.435E-04
1.538,   4.689E-04
1.54,   4.951E-04
1.542,   5.213E-04
1.544,   5.474E-04
1.546,   5.735E-04
1.548,   6.001E-04
1.55,   6.265E-04
1.552,   6.552E-04
1.554,   6.845E-04
1.556,   7.139E-04
1.558,   7.429E-04
1.56,   7.739E-04
1.562,   8.065E-04
1.564,   8.399E-04
1.566,   8.852E-04
1.568,   9.238E-04
1.57,   9.619E-04
1.572,   9.999E-04
1.574,   1.038E-03
1.576,   1.077E-03
1.578,   1.118E-03
1.58,   1.161E-03
1.582,   1.208E-03
1.584,   1.252E-03
1.586,   1.300E-03
1.588,   1.346E-03
1.59,   1.398E-03
1.592,   1.449E-03
1.594,   1.504E-03
1.596,   1.563E-03
1.598,   1.625E-03
1.6,   1.693E-03
1.602,   1.756E-03
1.604,   1.820E-03
1.606,   1.874E-03
1.608,   1.937E-03
1.609,   1.968E-03

File: B4_VARIANCE_400_#3_Full(#11)-391mV.txt
Mar. 27, 2023   15:09:03
Linear Sweep Voltammetry
File: d:\current work\al_oer\electrochemical test data\batch 4\400\B4_VARIANCE_400_#3_Full(#11)-391mV.txt
Data Source:  Experiment
Instrument Model:  CHI660E
Header:
Note:

Init E (V) = 1.109

Final E (V) = 1.638

Scan Rate (V/s) = 0.010
Sample Interval (V) = 0.001
Quiet Time (sec) = 2
Sensitivity (A/V) = 0.001
Comp R (ohm) = 4.7

Results:

Channel 1:

Potential/V, Current/A
1.109,   2.232e-4
1.111,   1.996e-4
1.113,   1.799e-4
1.115,   1.637e-4
1.117,   1.502e-4
1.119,   1.386e-4
1.121,   1.287e-4
1.123,   1.203e-4
1.125,   1.132e-4
1.127,   1.068e-4
1.129,   1.012e-4
1.131,   9.627e-5
1.133,   9.207e-5
1.135,   8.802e-5
1.137,   8.455e-5
1.139,   8.114e-5
1.141,   7.818e-5
1.143,   7.512e-5
1.145,   7.249e-5
1.147,   7.046e-5
1.149,   6.855e-5
1.151,   6.647e-5
1.153,   6.464e-5
1.155,   6.324e-5
1.157,   6.188e-5
1.159,   6.064e-5
1.161,   5.933e-5
1.163,   5.814e-5
1.165,   5.712e-5
1.167,   5.602e-5
1.169,   5.515e-5
1.171,   5.418e-5
1.173,   5.341e-5
1.175,   5.259e-5
1.177,   5.199e-5
1.179,   5.126e-5
1.181,   5.050e-5
1.183,   5.000e-5
1.185,   4.947e-5
1.187,   4.893e-5
1.189,   4.852e-5
1.191,   4.805e-5
1.193,   4.771e-5
1.195,   4.756e-5
1.197,   4.705e-5
1.199,   4.697e-5
1.201,   4.667e-5
1.203,   4.633e-5
1.205,   4.595e-5
1.207,   4.577e-5
1.209,   4.552e-5
1.211,   4.532e-5
1.213,   4.519e-5
1.215,   4.496e-5
1.217,   4.458e-5
1.219,   4.447e-5
1.221,   4.430e-5
1.223,   4.407e-5
1.225,   4.390e-5
1.227,   4.377e-5
1.229,   4.373e-5
1.231,   4.386e-5
1.233,   4.380e-5
1.235,   4.347e-5
1.237,   4.341e-5
1.239,   4.352e-5
1.241,   4.367e-5
1.243,   4.368e-5
1.245,   4.360e-5
1.247,   4.358e-5
1.249,   4.359e-5
1.251,   4.354e-5
1.253,   4.354e-5
1.255,   4.359e-5
1.257,   4.365e-5
1.259,   4.374e-5
1.261,   4.377e-5
1.263,   4.384e-5
1.265,   4.393e-5
1.267,   4.388e-5
1.269,   4.388e-5
1.271,   4.403e-5
1.273,   4.409e-5
1.275,   4.412e-5
1.277,   4.414e-5
1.279,   4.422e-5
1.281,   4.426e-5
1.283,   4.429e-5
1.285,   4.435e-5
1.287,   4.446e-5
1.289,   4.472e-5
1.291,   4.477e-5
1.293,   4.485e-5
1.295,   4.505e-5
1.297,   4.529e-5
1.299,   4.527e-5
1.301,   4.547e-5
1.303,   4.554e-5
1.305,   4.569e-5
1.307,   4.598e-5
1.309,   4.624e-5
1.311,   4.636e-5
1.313,   4.650e-5
1.315,   4.671e-5
1.317,   4.689e-5
1.319,   4.722e-5
1.321,   4.737e-5
1.323,   4.763e-5
1.325,   4.792e-5
1.327,   4.816e-5
1.329,   4.846e-5
1.331,   4.867e-5
1.333,   4.892e-5
1.335,   4.920e-5
1.337,   4.948e-5
1.339,   4.970e-5
1.341,   4.996e-5
1.343,   5.026e-5
1.345,   5.062e-5
1.347,   5.102e-5
1.349,   5.146e-5
1.351,   5.195e-5
1.353,   5.236e-5
1.355,   5.281e-5
1.357,   5.328e-5
1.359,   5.367e-5
1.361,   5.426e-5
1.363,   5.476e-5
1.365,   5.529e-5
1.367,   5.593e-5
1.369,   5.653e-5
1.371,   5.708e-5
1.373,   5.782e-5
1.375,   5.848e-5
1.377,   5.933e-5
1.379,   6.012e-5
1.381,   6.117e-5
1.383,   6.210e-5
1.385,   6.305e-5
1.387,   6.404e-5
1.389,   6.514e-5
1.391,   6.635e-5
1.393,   6.778e-5
1.395,   6.921e-5
1.397,   7.097e-5
1.399,   7.283e-5
1.401,   7.458e-5
1.403,   7.688e-5
1.405,   7.902e-5
1.407,   8.121e-5
1.409,   8.398e-5
1.411,   8.696e-5
1.413,   9.017e-5
1.415,   9.367e-5
1.417,   9.744e-5
1.419,   1.015e-4
1.421,   1.059e-4
1.423,   1.107e-4
1.425,   1.161e-4
1.427,   1.215e-4
1.429,   1.276e-4
1.431,   1.338e-4
1.433,   1.405e-4
1.435,   1.474e-4
1.437,   1.555e-4
1.439,   1.636e-4
1.441,   1.720e-4
1.443,   1.811e-4
1.445,   1.911e-4
1.447,   2.014e-4
1.449,   2.117e-4
1.451,   2.233e-4
1.453,   2.358e-4
1.455,   2.489e-4
1.457,   2.626e-4
1.459,   2.767e-4
1.461,   2.909e-4
1.463,   3.064e-4
1.465,   3.219e-4
1.467,   3.382e-4
1.469,   3.551e-4
1.471,   3.733e-4
1.473,   3.923e-4
1.475,   4.114e-4
1.477,   4.310e-4
1.479,   4.512e-4
1.481,   4.708e-4
1.483,   4.930e-4
1.485,   5.150e-4
1.487,   5.375e-4
1.489,   5.614e-4
1.491,   5.855e-4
1.493,   6.095e-4
1.495,   6.342e-4
1.497,   6.590e-4
1.499,   6.845e-4
1.501,   7.096e-4
1.503,   7.355e-4
1.505,   7.620e-4
1.507,   7.883e-4
1.509,   8.156e-4
1.511,   8.426e-4
1.513,   8.703e-4
1.515,   8.975e-4
1.517,   9.244e-4
1.519,   9.524e-4
1.521,   9.789e-4
1.523,   1.006e-3
1.525,   1.033e-3
1.527,   1.059e-3
1.529,   1.086e-3
1.531,   1.113e-3
1.533,   1.139e-3
1.535,   1.165e-3
1.537,   1.190e-3
1.539,   1.215e-3
1.541,   1.241e-3
1.543,   1.264e-3
1.545,   1.288e-3
1.547,   1.314e-3
1.549,   1.337e-3
1.551,   1.360e-3
1.553,   1.383e-3
1.555,   1.405e-3
1.557,   1.429e-3
1.559,   1.451e-3
1.561,   1.475e-3
1.563,   1.498e-3
1.565,   1.519e-3
1.567,   1.543e-3
1.569,   1.564e-3
1.571,   1.584e-3
1.573,   1.605e-3
1.575,   1.625e-3
1.577,   1.644e-3
1.579,   1.664e-3
1.581,   1.683e-3
1.583,   1.701e-3
1.585,   1.719e-3
1.587,   1.738e-3
1.589,   1.754e-3
1.591,   1.769e-3
1.593,   1.785e-3
1.595,   1.800e-3
1.597,   1.816e-3
1.599,   1.831e-3
1.601,   1.847e-3
1.603,   1.864e-3
1.605,   1.874e-3
1.607,   1.888e-3
1.609,   1.898e-3
1.611,   1.908e-3
1.613,   1.920e-3
1.615,   1.931e-3
1.617,   1.941e-3
1.619,   1.949e-3
1.621,   1.957e-3
1.623,   1.967e-3
1.625,   1.976e-3
1.627,   1.985e-3
1.629,   1.989e-3
1.631,   1.996e-3
1.633,   2.001e-3
1.635,   2.009e-3
1.637,   2.018e-3
1.638,   2.020e-3

File: B4_VARIANCE_400_#3_High_Quality(#27)-346mV.txt
Mar. 28, 2023   17:43:48
Linear Sweep Voltammetry
File: d:\current work\al_oer\electrochemical test data\batch 4\400\B4_VARIANCE_400_#3_High_Quality(#27)-346mV.txt
Data Source:  Experiment
Instrument Model:  CHI660E
Header:
Note:

Init E (V) = 1.135

Final E (V) = 1.634

Scan Rate (V/s) = 0.010
Sample Interval (V) = 0.001
Quiet Time (sec) = 2
Sensitivity (A/V) = 0.001
Comp R (ohm) = 7.1

Results:

Channel 1:

Potential/V, Current/A
1.135,   -5.539e-6
1.137,   -3.479e-6
1.139,   -2.766e-6
1.141,   -2.167e-6
1.143,   -1.640e-6
1.145,   -1.280e-6
1.147,   -9.609e-7
1.149,   -6.731e-7
1.151,   -3.869e-7
1.153,   -1.659e-7
1.155,   8.021e-8
1.157,   2.406e-7
1.159,   4.482e-7
1.161,   6.031e-7
1.163,   7.761e-7
1.165,   9.649e-7
1.167,   1.118e-6
1.169,   1.267e-6
1.171,   1.397e-6
1.173,   1.551e-6
1.175,   1.662e-6
1.177,   1.742e-6
1.179,   1.928e-6
1.181,   2.040e-6
1.183,   2.096e-6
1.185,   2.251e-6
1.187,   2.317e-6
1.189,   2.402e-6
1.191,   2.517e-6
1.193,   2.582e-6
1.195,   2.690e-6
1.197,   2.781e-6
1.199,   2.855e-6
1.201,   2.957e-6
1.203,   3.020e-6
1.205,   3.105e-6
1.207,   3.208e-6
1.209,   3.280e-6
1.211,   3.353e-6
1.213,   3.461e-6
1.215,   3.515e-6
1.217,   3.614e-6
1.219,   3.690e-6
1.221,   3.769e-6
1.223,   3.816e-6
1.225,   3.908e-6
1.227,   3.988e-6
1.229,   4.028e-6
1.231,   4.102e-6
1.233,   4.206e-6
1.235,   4.260e-6
1.237,   4.315e-6
1.239,   4.382e-6
1.241,   4.466e-6
1.243,   4.496e-6
1.245,   4.565e-6
1.247,   4.576e-6
1.249,   4.656e-6
1.251,   4.710e-6
1.253,   4.753e-6
1.255,   4.789e-6
1.257,   4.847e-6
1.259,   4.882e-6
1.261,   4.927e-6
1.263,   4.982e-6
1.265,   5.021e-6
1.267,   5.028e-6
1.269,   5.060e-6
1.271,   5.095e-6
1.273,   5.151e-6
1.275,   5.155e-6
1.277,   5.206e-6
1.279,   5.206e-6
1.281,   5.262e-6
1.283,   5.257e-6
1.285,   5.269e-6
1.287,   5.282e-6
1.289,   5.344e-6
1.291,   5.383e-6
1.293,   5.384e-6
1.295,   5.418e-6
1.297,   5.439e-6
1.299,   5.456e-6
1.301,   5.436e-6
1.303,   5.490e-6
1.305,   5.540e-6
1.307,   5.539e-6
1.309,   5.556e-6
1.311,   5.578e-6
1.313,   5.621e-6
1.315,   5.608e-6
1.317,   5.607e-6
1.319,   5.626e-6
1.321,   5.670e-6
1.323,   5.641e-6
1.325,   5.677e-6
1.327,   5.703e-6
1.329,   5.751e-6
1.331,   5.789e-6
1.333,   5.769e-6
1.335,   5.821e-6
1.337,   5.860e-6
1.339,   5.865e-6
1.341,   5.853e-6
1.343,   5.876e-6
1.345,   5.918e-6
1.347,   5.997e-6
1.349,   5.972e-6
1.351,   6.003e-6
1.353,   6.066e-6
1.355,   6.085e-6
1.357,   6.113e-6
1.359,   6.128e-6
1.361,   6.219e-6
1.363,   6.183e-6
1.365,   6.249e-6
1.367,   6.280e-6
1.369,   6.344e-6
1.371,   6.358e-6
1.373,   6.450e-6
1.375,   6.447e-6
1.377,   6.543e-6
1.379,   6.572e-6
1.381,   6.585e-6
1.383,   6.660e-6
1.385,   6.765e-6
1.387,   6.798e-6
1.389,   6.849e-6
1.391,   6.860e-6
1.393,   6.997e-6
1.395,   7.074e-6
1.397,   7.124e-6
1.399,   7.231e-6
1.401,   7.363e-6
1.403,   7.494e-6
1.405,   7.587e-6
1.407,   7.757e-6
1.409,   7.888e-6
1.411,   8.058e-6
1.413,   8.190e-6
1.415,   8.360e-6
1.417,   8.581e-6
1.419,   8.772e-6
1.421,   8.993e-6
1.423,   9.159e-6
1.425,   9.489e-6
1.427,   9.805e-6
1.429,   1.010e-5
1.431,   1.045e-5
1.433,   1.080e-5
1.435,   1.122e-5
1.437,   1.167e-5
1.439,   1.218e-5
1.441,   1.275e-5
1.443,   1.332e-5
1.445,   1.399e-5
1.447,   1.476e-5
1.449,   1.556e-5
1.451,   1.643e-5
1.453,   1.738e-5
1.455,   1.845e-5
1.457,   1.968e-5
1.459,   2.100e-5
1.461,   2.243e-5
1.463,   2.401e-5
1.465,   2.583e-5
1.467,   2.769e-5
1.469,   2.983e-5
1.471,   3.210e-5
1.473,   3.469e-5
1.475,   3.746e-5
1.477,   4.039e-5
1.479,   4.377e-5
1.481,   4.746e-5
1.483,   5.151e-5
1.485,   5.586e-5
1.487,   6.067e-5
1.489,   6.615e-5
1.491,   7.189e-5
1.493,   7.838e-5
1.495,   8.540e-5
1.497,   9.322e-5
1.499,   1.017e-4
1.501,   1.110e-4
1.503,   1.212e-4
1.505,   1.325e-4
1.507,   1.447e-4
1.509,   1.583e-4
1.511,   1.729e-4
1.513,   1.889e-4
1.515,   2.063e-4
1.517,   2.254e-4
1.519,   2.464e-4
1.521,   2.689e-4
1.523,   2.937e-4
1.525,   3.207e-4
1.527,   3.497e-4
1.529,   3.812e-4
1.531,   4.154e-4
1.533,   4.521e-4
1.535,   4.917e-4
1.537,   5.339e-4
1.539,   5.778e-4
1.541,   6.238e-4
1.543,   6.758e-4
1.545,   7.294e-4
1.547,   7.863e-4
1.549,   8.461e-4
1.551,   9.087e-4
1.553,   9.742e-4
1.555,   1.042e-3
1.557,   1.112e-3
1.559,   1.186e-3
1.561,   1.263e-3
1.563,   1.342e-3
1.565,   1.424e-3
1.567,   1.508e-3
1.569,   1.595e-3
1.571,   1.684e-3
1.573,   1.775e-3
1.575,   1.868e-3
1.577,   1.956e-3
1.579,   2.061e-3
1.581,   2.167e-3
1.583,   2.273e-3
1.585,   2.381e-3
1.587,   2.488e-3
1.589,   2.597e-3
1.591,   2.701e-3
1.593,   2.824e-3
1.595,   2.947e-3
1.597,   3.064e-3
1.599,   3.180e-3
1.601,   3.304e-3
1.603,   3.395e-3
1.605,   3.533e-3
1.607,   3.664e-3
1.609,   3.802e-3
1.611,   3.948e-3
1.613,   4.098e-3
1.615,   4.266e-3
1.617,   4.412e-3
1.619,   4.559e-3
1.621,   4.673e-3
1.623,   4.843e-3
1.625,   4.982e-3
1.627,   5.129e-3
1.629,   5.271e-3
1.631,   5.486e-3
1.633,   5.596e-3
1.634,   5.640e-3