Folder: DASH/Experimental Records and Raw Data/batch4/final400 (part 3)

File: B4_VARIANCE_400_#4_Full(#12)-402mV.txt
Mar. 26, 2023   16:00:46
Linear Sweep Voltammetry
File: d:\current work\al_oer\electrochemical test data\batch 4\400\B4_VARIANCE_400_#4_Full(#12)-402mV.txt
Data Source:  Experiment
Instrument Model:  CHI660E
Header:
Note:

Init E (V) = 1.070

Final E (V) = 1.669

Scan Rate (V/s) = 0.010
Sample Interval (V) = 0.001
Quiet Time (sec) = 2
Sensitivity (A/V) = 0.001
Comp R (ohm) = 5.0

Results:

Channel 1:

Potential/V, Current/A
1.070,   -3.318e-7
1.072,   3.853e-7
1.074,   5.937e-7
1.076,   7.360e-7
1.078,   8.343e-7
1.080,   9.295e-7
1.082,   9.892e-7
1.084,   1.056e-6
1.086,   1.122e-6
1.088,   1.179e-6
1.090,   1.225e-6
1.092,   1.251e-6
1.094,   1.293e-6
1.096,   1.340e-6
1.098,   1.346e-6
1.100,   1.390e-6
1.102,   1.410e-6
1.104,   1.437e-6
1.106,   1.489e-6
1.108,   1.518e-6
1.110,   1.515e-6
1.112,   1.539e-6
1.114,   1.559e-6
1.116,   1.571e-6
1.118,   1.564e-6
1.120,   1.603e-6
1.122,   1.627e-6
1.124,   1.629e-6
1.126,   1.654e-6
1.128,   1.678e-6
1.130,   1.669e-6
1.132,   1.729e-6
1.134,   1.721e-6
1.136,   1.725e-6
1.138,   1.746e-6
1.140,   1.765e-6
1.142,   1.777e-6
1.144,   1.802e-6
1.146,   1.796e-6
1.148,   1.817e-6
1.150,   1.847e-6
1.152,   1.838e-6
1.154,   1.875e-6
1.156,   1.879e-6
1.158,   1.894e-6
1.160,   1.912e-6
1.162,   1.917e-6
1.164,   1.931e-6
1.166,   1.942e-6
1.168,   1.974e-6
1.170,   1.960e-6
1.172,   1.978e-6
1.174,   2.010e-6
1.176,   2.004e-6
1.178,   2.033e-6
1.180,   2.028e-6
1.182,   2.030e-6
1.184,   2.057e-6
1.186,   2.092e-6
1.188,   2.079e-6
1.190,   2.100e-6
1.192,   2.109e-6
1.194,   2.126e-6
1.196,   2.153e-6
1.198,   2.161e-6
1.200,   2.158e-6
1.202,   2.181e-6
1.204,   2.183e-6
1.206,   2.192e-6
1.208,   2.201e-6
1.210,   2.236e-6
1.212,   2.238e-6
1.214,   2.236e-6
1.216,   2.259e-6
1.218,   2.263e-6
1.220,   2.283e-6
1.222,   2.280e-6
1.224,   2.296e-6
1.226,   2.297e-6
1.228,   2.312e-6
1.230,   2.312e-6
1.232,   2.335e-6
1.234,   2.344e-6
1.236,   2.350e-6
1.238,   2.365e-6
1.240,   2.393e-6
1.242,   2.388e-6
1.244,   2.402e-6
1.246,   2.414e-6
1.248,   2.433e-6
1.250,   2.454e-6
1.252,   2.451e-6
1.254,   2.449e-6
1.256,   2.472e-6
1.258,   2.503e-6
1.260,   2.501e-6
1.262,   2.513e-6
1.264,   2.559e-6
1.266,   2.547e-6
1.268,   2.585e-6
1.270,   2.578e-6
1.272,   2.593e-6
1.274,   2.615e-6
1.276,   2.637e-6
1.278,   2.664e-6
1.280,   2.705e-6
1.282,   2.691e-6
1.284,   2.703e-6
1.286,   2.722e-6
1.288,   2.758e-6
1.290,   2.774e-6
1.292,   2.817e-6
1.294,   2.808e-6
1.296,   2.865e-6
1.298,   2.881e-6
1.300,   2.907e-6
1.302,   2.940e-6
1.304,   2.953e-6
1.306,   2.975e-6
1.308,   3.014e-6
1.310,   3.051e-6
1.312,   3.081e-6
1.314,   3.098e-6
1.316,   3.128e-6
1.318,   3.166e-6
1.320,   3.213e-6
1.322,   3.247e-6
1.324,   3.275e-6
1.326,   3.311e-6
1.328,   3.335e-6
1.330,   3.399e-6
1.332,   3.416e-6
1.334,   3.464e-6
1.336,   3.521e-6
1.338,   3.550e-6
1.340,   3.595e-6
1.342,   3.642e-6
1.344,   3.671e-6
1.346,   3.711e-6
1.348,   3.794e-6
1.350,   3.822e-6
1.352,   3.892e-6
1.354,   3.913e-6
1.356,   4.003e-6
1.358,   4.060e-6
1.360,   4.158e-6
1.362,   4.233e-6
1.364,   4.280e-6
1.366,   4.365e-6
1.368,   4.470e-6
1.370,   4.549e-6
1.372,   4.660e-6
1.374,   4.755e-6
1.376,   4.881e-6
1.378,   4.991e-6
1.380,   5.118e-6
1.382,   5.259e-6
1.384,   5.410e-6
1.386,   5.586e-6
1.388,   5.780e-6
1.390,   5.983e-6
1.392,   6.224e-6
1.394,   6.419e-6
1.396,   6.697e-6
1.398,   6.978e-6
1.400,   7.329e-6
1.402,   7.624e-6
1.404,   7.982e-6
1.406,   8.342e-6
1.408,   8.791e-6
1.410,   9.262e-6
1.412,   9.785e-6
1.414,   1.035e-5
1.416,   1.095e-5
1.418,   1.164e-5
1.420,   1.236e-5
1.422,   1.319e-5
1.424,   1.408e-5
1.426,   1.502e-5
1.428,   1.608e-5
1.430,   1.718e-5
1.432,   1.844e-5
1.434,   1.978e-5
1.436,   2.125e-5
1.438,   2.286e-5
1.440,   2.464e-5
1.442,   2.652e-5
1.444,   2.849e-5
1.446,   3.069e-5
1.448,   3.304e-5
1.450,   3.562e-5
1.452,   3.819e-5
1.454,   4.109e-5
1.456,   4.425e-5
1.458,   4.759e-5
1.460,   5.114e-5
1.462,   5.494e-5
1.464,   5.900e-5
1.466,   6.326e-5
1.468,   6.772e-5
1.470,   7.246e-5
1.472,   7.756e-5
1.474,   8.279e-5
1.476,   8.852e-5
1.478,   9.421e-5
1.480,   1.002e-4
1.482,   1.064e-4
1.484,   1.129e-4
1.486,   1.190e-4
1.488,   1.261e-4
1.490,   1.334e-4
1.492,   1.410e-4
1.494,   1.482e-4
1.496,   1.566e-4
1.498,   1.645e-4
1.500,   1.733e-4
1.502,   1.824e-4
1.504,   1.919e-4
1.506,   2.012e-4
1.508,   2.113e-4
1.510,   2.229e-4
1.512,   2.345e-4
1.514,   2.476e-4
1.516,   2.597e-4
1.518,   2.729e-4
1.520,   2.864e-4
1.522,   3.005e-4
1.524,   3.162e-4
1.526,   3.325e-4
1.528,   3.505e-4
1.530,   3.681e-4
1.532,   3.869e-4
1.534,   4.052e-4
1.536,   4.269e-4
1.538,   4.485e-4
1.540,   4.709e-4
1.542,   4.959e-4
1.544,   5.192e-4
1.546,   5.450e-4
1.548,   5.709e-4
1.550,   6.002e-4
1.552,   6.273e-4
1.554,   6.569e-4
1.556,   6.885e-4
1.558,   7.193e-4
1.560,   7.511e-4
1.562,   7.837e-4
1.564,   8.189e-4
1.566,   8.566e-4
1.568,   8.898e-4
1.570,   9.249e-4
1.572,   9.634e-4
1.574,   1.002e-3
1.576,   1.038e-3
1.578,   1.079e-3
1.580,   1.117e-3
1.582,   1.153e-3
1.584,   1.191e-3
1.586,   1.231e-3
1.588,   1.268e-3
1.590,   1.305e-3
1.592,   1.341e-3
1.594,   1.375e-3
1.596,   1.414e-3
1.598,   1.453e-3
1.600,   1.496e-3
1.602,   1.532e-3
1.604,   1.565e-3
1.606,   1.599e-3
1.608,   1.630e-3
1.610,   1.658e-3
1.612,   1.682e-3
1.614,   1.712e-3
1.616,   1.740e-3
1.618,   1.768e-3
1.620,   1.794e-3
1.622,   1.821e-3
1.624,   1.842e-3
1.626,   1.859e-3
1.628,   1.882e-3
1.630,   1.914e-3
1.632,   1.951e-3
1.634,   1.970e-3
1.636,   1.998e-3
1.638,   2.022e-3
1.640,   2.032e-3
1.642,   2.045e-3
1.644,   2.060e-3
1.646,   2.068e-3
1.648,   2.077e-3
1.650,   2.101e-3
1.652,   2.115e-3
1.654,   2.122e-3
1.656,   2.123e-3
1.658,   2.133e-3
1.660,   2.134e-3
1.662,   2.147e-3
1.664,   2.160e-3
1.666,   2.174e-3
1.668,   2.192e-3
1.669,   2.205e-3

File: B4_VARIANCE_400_#5_Full(#13)-397mV.txt
Mar. 26, 2023   16:28:08
Linear Sweep Voltammetry
File: d:\current work\al_oer\electrochemical test data\batch 4\400\B4_VARIANCE_400_#5_Full(#13)-397mV.txt
Data Source:  Experiment
Instrument Model:  CHI660E
Header:
Note:

Init E (V) = 1.052

Final E (V) = 1.651

Scan Rate (V/s) = 0.010
Sample Interval (V) = 0.001
Quiet Time (sec) = 2
Sensitivity (A/V) = 0.001
Comp R (ohm) = 5.2

Results:

Channel 1:

Potential/V, Current/A
1.052,   7.204e-6
1.054,   6.763e-6
1.056,   6.136e-6
1.058,   5.654e-6
1.060,   5.241e-6
1.062,   4.864e-6
1.064,   4.600e-6
1.066,   4.342e-6
1.068,   4.106e-6
1.070,   3.919e-6
1.072,   3.774e-6
1.074,   3.622e-6
1.076,   3.483e-6
1.078,   3.356e-6
1.080,   3.236e-6
1.082,   3.138e-6
1.084,   3.076e-6
1.086,   2.989e-6
1.088,   2.919e-6
1.090,   2.875e-6
1.092,   2.814e-6
1.094,   2.734e-6
1.096,   2.719e-6
1.098,   2.662e-6
1.100,   2.617e-6
1.102,   2.593e-6
1.104,   2.562e-6
1.106,   2.528e-6
1.108,   2.526e-6
1.110,   2.507e-6
1.112,   2.465e-6
1.114,   2.466e-6
1.116,   2.436e-6
1.118,   2.425e-6
1.120,   2.395e-6
1.122,   2.405e-6
1.124,   2.405e-6
1.126,   2.395e-6
1.128,   2.368e-6
1.130,   2.349e-6
1.132,   2.346e-6
1.134,   2.397e-6
1.136,   2.374e-6
1.138,   2.329e-6
1.140,   2.346e-6
1.142,   2.369e-6
1.144,   2.344e-6
1.146,   2.320e-6
1.148,   2.343e-6
1.150,   2.357e-6
1.152,   2.367e-6
1.154,   2.369e-6
1.156,   2.351e-6
1.158,   2.375e-6
1.160,   2.371e-6
1.162,   2.404e-6
1.164,   2.383e-6
1.166,   2.368e-6
1.168,   2.383e-6
1.170,   2.408e-6
1.172,   2.376e-6
1.174,   2.399e-6
1.176,   2.427e-6
1.178,   2.437e-6
1.180,   2.431e-6
1.182,   2.435e-6
1.184,   2.438e-6
1.186,   2.445e-6
1.188,   2.439e-6
1.190,   2.447e-6
1.192,   2.483e-6
1.194,   2.441e-6
1.196,   2.451e-6
1.198,   2.463e-6
1.200,   2.495e-6
1.202,   2.485e-6
1.204,   2.471e-6
1.206,   2.509e-6
1.208,   2.508e-6
1.210,   2.526e-6
1.212,   2.514e-6
1.214,   2.551e-6
1.216,   2.557e-6
1.218,   2.541e-6
1.220,   2.553e-6
1.222,   2.561e-6
1.224,   2.578e-6
1.226,   2.575e-6
1.228,   2.571e-6
1.230,   2.637e-6
1.232,   2.625e-6
1.234,   2.639e-6
1.236,   2.644e-6
1.238,   2.639e-6
1.240,   2.660e-6
1.242,   2.650e-6
1.244,   2.667e-6
1.246,   2.691e-6
1.248,   2.721e-6
1.250,   2.739e-6
1.252,   2.738e-6
1.254,   2.739e-6
1.256,   2.770e-6
1.258,   2.776e-6
1.260,   2.764e-6
1.262,   2.807e-6
1.264,   2.800e-6
1.266,   2.853e-6
1.268,   2.844e-6
1.270,   2.875e-6
1.272,   2.922e-6
1.274,   2.909e-6
1.276,   2.933e-6
1.278,   2.972e-6
1.280,   2.949e-6
1.282,   3.008e-6
1.284,   3.025e-6
1.286,   3.043e-6
1.288,   3.081e-6
1.290,   3.096e-6
1.292,   3.127e-6
1.294,   3.158e-6
1.296,   3.180e-6
1.298,   3.202e-6
1.300,   3.243e-6
1.302,   3.257e-6
1.304,   3.302e-6
1.306,   3.317e-6
1.308,   3.366e-6
1.310,   3.388e-6
1.312,   3.434e-6
1.314,   3.470e-6
1.316,   3.524e-6
1.318,   3.539e-6
1.320,   3.577e-6
1.322,   3.612e-6
1.324,   3.643e-6
1.326,   3.728e-6
1.328,   3.775e-6
1.330,   3.817e-6
1.332,   3.869e-6
1.334,   3.932e-6
1.336,   3.970e-6
1.338,   4.059e-6
1.340,   4.122e-6
1.342,   4.195e-6
1.344,   4.271e-6
1.346,   4.372e-6
1.348,   4.439e-6
1.350,   4.544e-6
1.352,   4.628e-6
1.354,   4.764e-6
1.356,   4.859e-6
1.358,   4.979e-6
1.360,   5.161e-6
1.362,   5.247e-6
1.364,   5.436e-6
1.366,   5.634e-6
1.368,   5.828e-6
1.370,   6.012e-6
1.372,   6.260e-6
1.374,   6.530e-6
1.376,   6.812e-6
1.378,   7.124e-6
1.380,   7.444e-6
1.382,   7.848e-6
1.384,   8.226e-6
1.386,   8.692e-6
1.388,   9.198e-6
1.390,   9.741e-6
1.392,   1.039e-5
1.394,   1.104e-5
1.396,   1.178e-5
1.398,   1.263e-5
1.400,   1.353e-5
1.402,   1.450e-5
1.404,   1.563e-5
1.406,   1.683e-5
1.408,   1.814e-5
1.410,   1.961e-5
1.412,   2.132e-5
1.414,   2.314e-5
1.416,   2.512e-5
1.418,   2.733e-5
1.420,   2.969e-5
1.422,   3.238e-5
1.424,   3.526e-5
1.426,   3.831e-5
1.428,   4.176e-5
1.430,   4.553e-5
1.432,   4.965e-5
1.434,   5.416e-5
1.436,   5.892e-5
1.438,   6.425e-5
1.440,   6.995e-5
1.442,   7.612e-5
1.444,   8.285e-5
1.446,   9.001e-5
1.448,   9.762e-5
1.450,   1.057e-4
1.452,   1.145e-4
1.454,   1.237e-4
1.456,   1.335e-4
1.458,   1.439e-4
1.460,   1.548e-4
1.462,   1.662e-4
1.464,   1.780e-4
1.466,   1.902e-4
1.468,   2.025e-4
1.470,   2.154e-4
1.472,   2.285e-4
1.474,   2.420e-4
1.476,   2.558e-4
1.478,   2.700e-4
1.480,   2.844e-4
1.482,   2.991e-4
1.484,   3.142e-4
1.486,   3.295e-4
1.488,   3.450e-4
1.490,   3.606e-4
1.492,   3.768e-4
1.494,   3.933e-4
1.496,   4.103e-4
1.498,   4.283e-4
1.500,   4.467e-4
1.502,   4.652e-4
1.504,   4.852e-4
1.506,   5.060e-4
1.508,   5.289e-4
1.510,   5.510e-4
1.512,   5.736e-4
1.514,   5.971e-4
1.516,   6.211e-4
1.518,   6.459e-4
1.520,   6.714e-4
1.522,   6.975e-4
1.524,   7.240e-4
1.526,   7.520e-4
1.528,   7.809e-4
1.530,   8.104e-4
1.532,   8.403e-4
1.534,   8.718e-4
1.536,   9.016e-4
1.538,   9.328e-4
1.540,   9.626e-4
1.542,   9.951e-4
1.544,   1.027e-3
1.546,   1.059e-3
1.548,   1.091e-3
1.550,   1.123e-3
1.552,   1.155e-3
1.554,   1.189e-3
1.556,   1.223e-3
1.558,   1.252e-3
1.560,   1.282e-3
1.562,   1.311e-3
1.564,   1.341e-3
1.566,   1.373e-3
1.568,   1.402e-3
1.570,   1.430e-3
1.572,   1.458e-3
1.574,   1.482e-3
1.576,   1.510e-3
1.578,   1.537e-3
1.580,   1.562e-3
1.582,   1.586e-3
1.584,   1.603e-3
1.586,   1.625e-3
1.588,   1.647e-3
1.590,   1.671e-3
1.592,   1.688e-3
1.594,   1.706e-3
1.596,   1.727e-3
1.598,   1.741e-3
1.600,   1.762e-3
1.602,   1.792e-3
1.604,   1.822e-3
1.606,   1.839e-3
1.608,   1.852e-3
1.610,   1.855e-3
1.612,   1.871e-3
1.614,   1.885e-3
1.616,   1.901e-3
1.618,   1.917e-3
1.620,   1.928e-3
1.622,   1.940e-3
1.624,   1.945e-3
1.626,   1.950e-3
1.628,   1.961e-3
1.630,   1.971e-3
1.632,   1.989e-3
1.634,   1.995e-3
1.636,   2.008e-3
1.638,   2.019e-3
1.640,   2.025e-3
1.642,   2.028e-3
1.644,   2.036e-3
1.646,   2.041e-3
1.648,   2.040e-3
1.650,   2.048e-3
1.651,   2.051e-3

File: B4_VARIANCE_400_#5_High_Quality(#29)-273mV.txt
Mar. 24, 2023   18:41:00
Linear Sweep Voltammetry
File: d:\current work\al_oer\electrochemical test data\batch 4\400\B4_VARIANCE_400_#5_High_Quality(#29)-273mV.txt
Data Source:  Experiment
Instrument Model:  CHI660E
Header:
Note:

Init E (V) = 1.100

Final E (V) = 1.599

Scan Rate (V/s) = 0.010
Sample Interval (V) = 0.001
Quiet Time (sec) = 2
Sensitivity (A/V) = 0.001
Comp R (ohm) = 7.5

Results:

Channel 1:

Potential/V, Current/A
1.100,   1.937e-5
1.102,   1.970e-5
1.104,   1.827e-5
1.106,   1.712e-5
1.108,   1.617e-5
1.110,   1.541e-5
1.112,   1.476e-5
1.114,   1.421e-5
1.116,   1.376e-5
1.118,   1.337e-5
1.120,   1.306e-5
1.122,   1.270e-5
1.124,   1.243e-5
1.126,   1.220e-5
1.128,   1.203e-5
1.130,   1.181e-5
1.132,   1.164e-5
1.134,   1.153e-5
1.136,   1.136e-5
1.138,   1.121e-5
1.140,   1.111e-5
1.142,   1.105e-5
1.144,   1.093e-5
1.146,   1.089e-5
1.148,   1.079e-5
1.150,   1.079e-5
1.152,   1.075e-5
1.154,   1.068e-5
1.156,   1.064e-5
1.158,   1.066e-5
1.160,   1.063e-5
1.162,   1.058e-5
1.164,   1.056e-5
1.166,   1.061e-5
1.168,   1.060e-5
1.170,   1.061e-5
1.172,   1.063e-5
1.174,   1.065e-5
1.176,   1.070e-5
1.178,   1.065e-5
1.180,   1.072e-5
1.182,   1.077e-5
1.184,   1.078e-5
1.186,   1.081e-5
1.188,   1.080e-5
1.190,   1.087e-5
1.192,   1.091e-5
1.194,   1.090e-5
1.196,   1.095e-5
1.198,   1.104e-5
1.200,   1.107e-5
1.202,   1.106e-5
1.204,   1.111e-5
1.206,   1.118e-5
1.208,   1.117e-5
1.210,   1.124e-5
1.212,   1.125e-5
1.214,   1.129e-5
1.216,   1.132e-5
1.218,   1.132e-5
1.220,   1.138e-5
1.222,   1.145e-5
1.224,   1.143e-5
1.226,   1.139e-5
1.228,   1.138e-5
1.230,   1.148e-5
1.232,   1.147e-5
1.234,   1.150e-5
1.236,   1.148e-5
1.238,   1.154e-5
1.240,   1.150e-5
1.242,   1.157e-5
1.244,   1.150e-5
1.246,   1.153e-5
1.248,   1.151e-5
1.250,   1.147e-5
1.252,   1.149e-5
1.254,   1.152e-5
1.256,   1.150e-5
1.258,   1.147e-5
1.260,   1.143e-5
1.262,   1.150e-5
1.264,   1.145e-5
1.266,   1.138e-5
1.268,   1.146e-5
1.270,   1.144e-5
1.272,   1.138e-5
1.274,   1.135e-5
1.276,   1.131e-5
1.278,   1.136e-5
1.280,   1.133e-5
1.282,   1.124e-5
1.284,   1.127e-5
1.286,   1.126e-5
1.288,   1.124e-5
1.290,   1.123e-5
1.292,   1.118e-5
1.294,   1.124e-5
1.296,   1.123e-5
1.298,   1.120e-5
1.300,   1.121e-5
1.302,   1.120e-5
1.304,   1.119e-5
1.306,   1.119e-5
1.308,   1.116e-5
1.310,   1.124e-5
1.312,   1.122e-5
1.314,   1.120e-5
1.316,   1.124e-5
1.318,   1.127e-5
1.320,   1.127e-5
1.322,   1.127e-5
1.324,   1.134e-5
1.326,   1.143e-5
1.328,   1.146e-5
1.330,   1.146e-5
1.332,   1.150e-5
1.334,   1.157e-5
1.336,   1.164e-5
1.338,   1.176e-5
1.340,   1.178e-5
1.342,   1.190e-5
1.344,   1.197e-5
1.346,   1.202e-5
1.348,   1.222e-5
1.350,   1.231e-5
1.352,   1.244e-5
1.354,   1.253e-5
1.356,   1.269e-5
1.358,   1.293e-5
1.360,   1.309e-5
1.362,   1.327e-5
1.364,   1.353e-5
1.366,   1.379e-5
1.368,   1.408e-5
1.370,   1.435e-5
1.372,   1.467e-5
1.374,   1.515e-5
1.376,   1.554e-5
1.378,   1.598e-5
1.380,   1.649e-5
1.382,   1.710e-5
1.384,   1.777e-5
1.386,   1.839e-5
1.388,   1.922e-5
1.390,   2.021e-5
1.392,   2.119e-5
1.394,   2.226e-5
1.396,   2.353e-5
1.398,   2.494e-5
1.400,   2.790e-5
1.402,   2.906e-5
1.404,   3.101e-5
1.406,   3.335e-5
1.408,   3.586e-5
1.410,   3.888e-5
1.412,   4.225e-5
1.414,   4.595e-5
1.416,   4.951e-5
1.418,   5.400e-5
1.420,   5.883e-5
1.422,   6.368e-5
1.424,   6.696e-5
1.426,   7.396e-5
1.428,   8.006e-5
1.430,   8.765e-5
1.432,   9.606e-5
1.434,   1.040e-4
1.436,   1.134e-4
1.438,   1.240e-4
1.440,   1.349e-4
1.442,   1.472e-4
1.444,   1.611e-4
1.446,   1.762e-4
1.448,   1.928e-4
1.450,   2.106e-4
1.452,   2.300e-4
1.454,   2.522e-4
1.456,   2.752e-4
1.458,   3.006e-4
1.460,   3.289e-4
1.462,   3.590e-4
1.464,   3.925e-4
1.466,   4.285e-4
1.468,   4.675e-4
1.470,   5.096e-4
1.472,   5.552e-4
1.474,   6.040e-4
1.476,   6.558e-4
1.478,   7.133e-4
1.480,   7.748e-4
1.482,   8.394e-4
1.484,   9.088e-4
1.486,   9.854e-4
1.488,   1.064e-3
1.490,   1.151e-3
1.492,   1.240e-3
1.494,   1.336e-3
1.496,   1.441e-3
1.498,   1.550e-3
1.500,   1.667e-3
1.502,   1.803e-3
1.504,   1.943e-3
1.506,   2.088e-3
1.508,   2.253e-3
1.510,   2.441e-3
1.512,   2.663e-3
1.514,   2.921e-3
1.516,   3.149e-3
1.518,   3.410e-3
1.520,   3.755e-3
1.522,   4.111e-3
1.524,   4.504e-3
1.526,   4.938e-3
1.528,   5.432e-3
1.530,   5.842e-3
1.532,   6.474e-3
1.534,   6.851e-3
1.536,   7.401e-3
1.538,   8.072e-3
1.540,   8.470e-3
1.542,   8.973e-3
1.544,   9.939e-3
1.546,   1.006e-2
1.548,   1.006e-2
1.550,   1.006e-2
1.552,   1.006e-2
1.554,   1.006e-2
1.556,   1.006e-2
1.558,   1.006e-2
1.560,   1.006e-2
1.562,   1.006e-2
1.564,   1.006e-2
1.566,   1.006e-2
1.568,   1.006e-2
1.570,   1.006e-2
1.572,   1.006e-2
1.574,   1.006e-2
1.576,   1.006e-2
1.578,   1.006e-2
1.580,   1.006e-2
1.582,   1.006e-2
1.584,   1.006e-2
1.586,   1.006e-2
1.588,   1.006e-2
1.590,   1.006e-2
1.592,   1.006e-2
1.594,   1.006e-2
1.596,   1.006e-2
1.598,   1.006e-2
1.599,   1.006e-2

File: B4_VARIANCE_400_#6_Full(#14)-332mV.txt
Mar. 24, 2023   15:19:23
Linear Sweep Voltammetry
File: d:\current work\al_oer\electrochemical test data\batch 4\400\B4_VARIANCE_400_#6_Full(#14)-332mV.txt
Data Source:  Experiment
Instrument Model:  CHI660E
Header:
Note:

Init E (V) = 1.111

Final E (V) = 1.610

Scan Rate (V/s) = 0.010
Sample Interval (V) = 0.001
Quiet Time (sec) = 2
Sensitivity (A/V) = 0.001
Comp R (ohm) = 7.2

Results:

Channel 1:

Potential/V, Current/A
1.111,   9.416e-6
1.113,   9.395e-6
1.115,   8.581e-6
1.117,   7.974e-6
1.119,   7.527e-6
1.121,   7.137e-6
1.123,   6.754e-6
1.125,   6.490e-6
1.127,   6.227e-6
1.129,   6.025e-6
1.131,   5.852e-6
1.133,   5.700e-6
1.135,   5.558e-6
1.137,   5.434e-6
1.139,   5.328e-6
1.141,   5.233e-6
1.143,   5.136e-6
1.145,   5.094e-6
1.147,   5.000e-6
1.149,   4.969e-6
1.151,   4.913e-6
1.153,   4.854e-6
1.155,   4.790e-6
1.157,   4.799e-6
1.159,   4.746e-6
1.161,   4.745e-6
1.163,   4.694e-6
1.165,   4.660e-6
1.167,   4.672e-6
1.169,   4.654e-6
1.171,   4.638e-6
1.173,   4.608e-6
1.175,   4.621e-6
1.177,   4.632e-6
1.179,   4.623e-6
1.181,   4.609e-6
1.183,   4.620e-6
1.185,   4.604e-6
1.187,   4.618e-6
1.189,   4.606e-6
1.191,   4.604e-6
1.193,   4.634e-6
1.195,   4.639e-6
1.197,   4.642e-6
1.199,   4.644e-6
1.201,   4.658e-6
1.203,   4.694e-6
1.205,   4.687e-6
1.207,   4.687e-6
1.209,   4.704e-6
1.211,   4.714e-6
1.213,   4.712e-6
1.215,   4.707e-6
1.217,   4.748e-6
1.219,   4.754e-6
1.221,   4.746e-6
1.223,   4.744e-6
1.225,   4.786e-6
1.227,   4.792e-6
1.229,   4.786e-6
1.231,   4.809e-6
1.233,   4.829e-6
1.235,   4.849e-6
1.237,   4.819e-6
1.239,   4.838e-6
1.241,   4.849e-6
1.243,   4.861e-6
1.245,   4.839e-6
1.247,   4.893e-6
1.249,   4.901e-6
1.251,   4.891e-6
1.253,   4.873e-6
1.255,   4.891e-6
1.257,   4.915e-6
1.259,   4.906e-6
1.261,   4.895e-6
1.263,   4.897e-6
1.265,   4.888e-6
1.267,   4.935e-6
1.269,   4.914e-6
1.271,   4.934e-6
1.273,   4.906e-6
1.275,   4.923e-6
1.277,   4.943e-6
1.279,   4.944e-6
1.281,   4.941e-6
1.283,   4.941e-6
1.285,   4.944e-6
1.287,   4.960e-6
1.289,   4.966e-6
1.291,   4.948e-6
1.293,   4.928e-6
1.295,   4.959e-6
1.297,   4.992e-6
1.299,   4.983e-6
1.301,   4.985e-6
1.303,   4.977e-6
1.305,   5.018e-6
1.307,   5.029e-6
1.309,   5.045e-6
1.311,   5.091e-6
1.313,   5.072e-6
1.315,   5.061e-6
1.317,   5.100e-6
1.319,   5.136e-6
1.321,   5.177e-6
1.323,   5.195e-6
1.325,   5.159e-6
1.327,   5.185e-6
1.329,   5.258e-6
1.331,   5.272e-6
1.333,   5.303e-6
1.335,   5.323e-6
1.337,   5.371e-6
1.339,   5.398e-6
1.341,   5.420e-6
1.343,   5.442e-6
1.345,   5.486e-6
1.347,   5.532e-6
1.349,   5.612e-6
1.351,   5.612e-6
1.353,   5.686e-6
1.355,   5.706e-6
1.357,   5.729e-6
1.359,   5.792e-6
1.361,   5.857e-6
1.363,   5.906e-6
1.365,   5.964e-6
1.367,   5.997e-6
1.369,   6.076e-6
1.371,   6.101e-6
1.373,   6.158e-6
1.375,   6.255e-6
1.377,   6.296e-6
1.379,   6.372e-6
1.381,   6.450e-6
1.383,   6.502e-6
1.385,   6.618e-6
1.387,   6.679e-6
1.389,   6.754e-6
1.391,   6.866e-6
1.393,   7.016e-6
1.395,   7.103e-6
1.397,   7.190e-6
1.399,   7.329e-6
1.401,   7.486e-6
1.403,   7.640e-6
1.405,   7.792e-6
1.407,   7.976e-6
1.409,   8.195e-6
1.411,   8.423e-6
1.413,   8.666e-6
1.415,   8.903e-6
1.417,   9.242e-6
1.419,   9.539e-6
1.421,   9.915e-6
1.423,   1.028e-5
1.425,   1.074e-5
1.427,   1.118e-5
1.429,   1.172e-5
1.431,   1.233e-5
1.433,   1.304e-5
1.435,   1.376e-5
1.437,   1.451e-5
1.439,   1.545e-5
1.441,   1.648e-5
1.443,   1.755e-5
1.445,   1.872e-5
1.447,   2.013e-5
1.449,   2.168e-5
1.451,   2.339e-5
1.453,   2.527e-5
1.455,   2.736e-5
1.457,   2.971e-5
1.459,   3.232e-5
1.461,   3.523e-5
1.463,   3.834e-5
1.465,   4.198e-5
1.467,   4.593e-5
1.469,   5.037e-5
1.471,   5.526e-5
1.473,   6.077e-5
1.475,   6.683e-5
1.477,   7.355e-5
1.479,   8.107e-5
1.481,   8.936e-5
1.483,   9.837e-5
1.485,   1.084e-4
1.487,   1.195e-4
1.489,   1.317e-4
1.491,   1.452e-4
1.493,   1.601e-4
1.495,   1.763e-4
1.497,   1.940e-4
1.499,   2.133e-4
1.501,   2.347e-4
1.503,   2.580e-4
1.505,   2.832e-4
1.507,   3.106e-4
1.509,   3.403e-4
1.511,   3.720e-4
1.513,   4.060e-4
1.515,   4.423e-4
1.517,   4.810e-4
1.519,   5.217e-4
1.521,   5.645e-4
1.523,   6.102e-4
1.525,   6.584e-4
1.527,   7.072e-4
1.529,   7.589e-4
1.531,   8.130e-4
1.533,   8.700e-4
1.535,   9.267e-4
1.537,   9.868e-4
1.539,   1.048e-3
1.541,   1.111e-3
1.543,   1.178e-3
1.545,   1.246e-3
1.547,   1.315e-3
1.549,   1.385e-3
1.551,   1.459e-3
1.553,   1.537e-3
1.555,   1.621e-3
1.557,   1.702e-3
1.559,   1.789e-3
1.561,   1.884e-3
1.563,   1.979e-3
1.565,   2.078e-3
1.567,   2.191e-3
1.569,   2.300e-3
1.571,   2.413e-3
1.573,   2.544e-3
1.575,   2.662e-3
1.577,   2.798e-3
1.579,   2.951e-3
1.581,   3.104e-3
1.583,   3.252e-3
1.585,   3.410e-3
1.587,   3.553e-3
1.589,   3.721e-3
1.591,   3.901e-3
1.593,   4.097e-3
1.595,   4.250e-3
1.597,   4.463e-3
1.599,   4.635e-3
1.601,   4.765e-3
1.603,   4.925e-3
1.605,   5.124e-3
1.607,   5.252e-3
1.609,   5.486e-3
1.610,   5.570e-3