Folder: DASH/Experimental Records and Raw Data/batch4/final500 (part 2)

File: B4_BEST_500_#4_Full-199mV.txt
Mar. 29, 2023   11:35:05
Linear Sweep Voltammetry
File: d:\current work\al_oer\electrochemical test data\batch 4\500\B4_BEST_500_#4_Full-199mV.txt
Data Source:  Experiment
Instrument Model:  CHI660E
Header:
Note:

Init E (V) = 1.099

Final E (V) = 1.672

Scan Rate (V/s) = 0.010
Sample Interval (V) = 0.001
Quiet Time (sec) = 2
Sensitivity (A/V) = 0.001
Comp R (ohm) = 5.0

Results:

Channel 1:
Ep = 1.263V
ip = 9.902e-3A
Ah = 3.711e-2C

Potential/V, Current/A
1.099,   1.697e-4
1.101,   1.982e-4
1.103,   1.839e-4
1.105,   1.732e-4
1.107,   1.660e-4
1.109,   1.597e-4
1.111,   1.548e-4
1.113,   1.508e-4
1.115,   1.475e-4
1.117,   1.454e-4
1.119,   1.439e-4
1.121,   1.414e-4
1.123,   1.402e-4
1.125,   1.396e-4
1.127,   1.385e-4
1.129,   1.378e-4
1.131,   1.372e-4
1.133,   1.378e-4
1.135,   1.372e-4
1.137,   1.367e-4
1.139,   1.373e-4
1.141,   1.378e-4
1.143,   1.378e-4
1.145,   1.383e-4
1.147,   1.383e-4
1.149,   1.395e-4
1.151,   1.398e-4
1.153,   1.400e-4
1.155,   1.406e-4
1.157,   1.420e-4
1.159,   1.425e-4
1.161,   1.431e-4
1.163,   1.437e-4
1.165,   1.454e-4
1.167,   1.459e-4
1.169,   1.464e-4
1.171,   1.480e-4
1.173,   1.490e-4
1.175,   1.496e-4
1.177,   1.505e-4
1.179,   1.515e-4
1.181,   1.526e-4
1.183,   1.541e-4
1.185,   1.541e-4
1.187,   1.553e-4
1.189,   1.567e-4
1.191,   1.573e-4
1.193,   1.579e-4
1.195,   1.586e-4
1.197,   1.604e-4
1.199,   1.607e-4
1.201,   1.609e-4
1.203,   1.619e-4
1.205,   1.630e-4
1.207,   1.634e-4
1.209,   1.641e-4
1.211,   1.640e-4
1.213,   1.651e-4
1.215,   1.655e-4
1.217,   1.652e-4
1.219,   1.654e-4
1.221,   1.664e-4
1.223,   1.666e-4
1.225,   1.663e-4
1.227,   1.664e-4
1.229,   1.674e-4
1.231,   1.669e-4
1.233,   1.662e-4
1.235,   1.669e-4
1.237,   1.668e-4
1.239,   1.664e-4
1.241,   1.660e-4
1.243,   1.653e-4
1.245,   1.660e-4
1.247,   1.656e-4
1.249,   1.647e-4
1.251,   1.645e-4
1.253,   1.647e-4
1.255,   1.641e-4
1.257,   1.632e-4
1.259,   1.628e-4
1.261,   1.638e-4
1.263,   1.626e-4
1.265,   1.616e-4
1.267,   1.617e-4
1.269,   1.615e-4
1.271,   1.608e-4
1.273,   1.608e-4
1.275,   1.596e-4
1.277,   1.601e-4
1.279,   1.595e-4
1.281,   1.585e-4
1.283,   1.583e-4
1.285,   1.588e-4
1.287,   1.582e-4
1.289,   1.578e-4
1.291,   1.572e-4
1.293,   1.580e-4
1.295,   1.576e-4
1.297,   1.570e-4
1.299,   1.574e-4
1.301,   1.574e-4
1.303,   1.574e-4
1.305,   1.572e-4
1.307,   1.570e-4
1.309,   1.577e-4
1.311,   1.580e-4
1.313,   1.573e-4
1.315,   1.577e-4
1.317,   1.586e-4
1.319,   1.586e-4
1.321,   1.583e-4
1.323,   1.589e-4
1.325,   1.606e-4
1.327,   1.603e-4
1.329,   1.601e-4
1.331,   1.613e-4
1.333,   1.625e-4
1.335,   1.626e-4
1.337,   1.639e-4
1.339,   1.642e-4
1.341,   1.659e-4
1.343,   1.669e-4
1.345,   1.675e-4
1.347,   1.690e-4
1.349,   1.710e-4
1.351,   1.724e-4
1.353,   1.737e-4
1.355,   1.753e-4
1.357,   1.784e-4
1.359,   1.804e-4
1.361,   1.827e-4
1.363,   1.859e-4
1.365,   1.896e-4
1.367,   1.929e-4
1.369,   1.965e-4
1.371,   2.012e-4
1.373,   2.070e-4
1.375,   2.134e-4
1.377,   2.193e-4
1.379,   2.271e-4
1.381,   2.367e-4
1.383,   2.464e-4
1.385,   2.577e-4
1.387,   2.705e-4
1.389,   2.873e-4
1.391,   3.042e-4
1.393,   3.231e-4
1.395,   3.468e-4
1.397,   3.737e-4
1.399,   4.032e-4
1.401,   4.372e-4
1.403,   4.786e-4
1.405,   5.207e-4
1.407,   5.766e-4
1.409,   6.314e-4
1.411,   6.938e-4
1.413,   7.692e-4
1.415,   8.533e-4
1.417,   9.472e-4
1.419,   1.058e-3
1.421,   1.189e-3
1.423,   1.313e-3
1.425,   1.472e-3
1.427,   1.635e-3
1.429,   1.835e-3
1.431,   2.042e-3
1.433,   2.274e-3
1.435,   2.541e-3
1.437,   2.838e-3
1.439,   3.167e-3
1.441,   3.533e-3
1.443,   3.943e-3
1.445,   4.397e-3
1.447,   4.907e-3
1.449,   5.478e-3
1.451,   6.107e-3
1.453,   6.815e-3
1.455,   7.599e-3
1.457,   8.465e-3
1.459,   9.417e-3
1.461,   1.006e-2
1.463,   1.006e-2
1.465,   1.006e-2
1.467,   1.006e-2
1.469,   1.006e-2
1.471,   1.006e-2
1.473,   1.006e-2
1.475,   1.006e-2
1.477,   1.006e-2
1.479,   1.006e-2
1.481,   1.006e-2
1.483,   1.006e-2
1.485,   1.006e-2
1.487,   1.006e-2
1.489,   1.006e-2
1.491,   1.006e-2
1.493,   1.006e-2
1.495,   1.006e-2
1.497,   1.006e-2
1.499,   1.006e-2
1.501,   1.006e-2
1.503,   1.006e-2
1.505,   1.006e-2
1.507,   1.006e-2
1.509,   1.006e-2
1.511,   1.006e-2
1.513,   1.006e-2
1.515,   1.006e-2
1.517,   1.006e-2
1.519,   1.006e-2
1.521,   1.006e-2
1.523,   1.006e-2
1.525,   1.006e-2
1.527,   1.006e-2
1.529,   1.006e-2
1.531,   1.006e-2
1.533,   1.006e-2
1.535,   1.006e-2
1.537,   1.006e-2
1.539,   1.006e-2
1.541,   1.006e-2
1.543,   1.006e-2
1.545,   1.006e-2
1.547,   1.006e-2
1.549,   1.006e-2
1.551,   1.006e-2
1.553,   1.006e-2
1.555,   1.006e-2
1.557,   1.006e-2
1.559,   1.006e-2
1.561,   1.006e-2
1.563,   1.006e-2
1.565,   1.006e-2
1.567,   1.006e-2
1.569,   1.006e-2
1.571,   1.006e-2
1.573,   1.006e-2
1.575,   1.006e-2
1.577,   1.006e-2
1.579,   1.006e-2
1.581,   1.006e-2
1.583,   1.006e-2
1.585,   1.006e-2
1.587,   1.006e-2
1.589,   1.006e-2
1.591,   1.006e-2
1.593,   1.006e-2
1.595,   1.006e-2
1.597,   1.006e-2
1.599,   1.006e-2
1.601,   1.006e-2
1.603,   1.006e-2
1.605,   1.006e-2
1.607,   1.006e-2
1.609,   1.006e-2
1.611,   1.006e-2
1.613,   1.006e-2
1.615,   1.006e-2
1.617,   1.006e-2
1.619,   1.006e-2
1.621,   1.006e-2
1.623,   1.006e-2
1.625,   1.006e-2
1.627,   1.006e-2
1.629,   1.006e-2
1.631,   1.006e-2
1.633,   1.006e-2
1.635,   1.006e-2
1.637,   1.006e-2
1.639,   1.006e-2
1.641,   1.006e-2
1.643,   1.006e-2
1.645,   1.006e-2
1.647,   1.006e-2
1.649,   1.006e-2
1.651,   1.006e-2
1.653,   1.006e-2
1.655,   1.006e-2
1.657,   1.006e-2
1.659,   1.006e-2
1.661,   1.006e-2
1.663,   1.006e-2
1.665,   1.006e-2
1.667,   1.006e-2
1.669,   1.006e-2
1.671,   1.006e-2
1.672,   1.006e-2

File: B4_BEST_500_#6_Full-245mV.txt
Mar. 28, 2023   11:51:48
Linear Sweep Voltammetry
File: d:\current work\al_oer\electrochemical test data\batch 4\500\B4_BEST_500_#6_Full-245mV.txt
Data Source:  Experiment
Instrument Model:  CHI660E
Header:
Note:

Init E (V) = 1.136

Final E (V) = 1.593

Scan Rate (V/s) = 0.010
Sample Interval (V) = 0.001
Quiet Time (sec) = 2
Sensitivity (A/V) = 0.001
Comp R (ohm) = 5.3

Results:

Channel 1:

Potential/V, Current/A
1.136,   7.791e-4
1.138,   6.664e-4
1.140,   5.754e-4
1.142,   5.042e-4
1.144,   4.478e-4
1.146,   4.025e-4
1.148,   3.650e-4
1.150,   3.339e-4
1.152,   3.076e-4
1.154,   2.853e-4
1.156,   2.667e-4
1.158,   2.502e-4
1.160,   2.356e-4
1.162,   2.229e-4
1.164,   2.120e-4
1.166,   2.028e-4
1.168,   1.944e-4
1.170,   1.869e-4
1.172,   1.802e-4
1.174,   1.740e-4
1.176,   1.687e-4
1.178,   1.639e-4
1.180,   1.596e-4
1.182,   1.555e-4
1.184,   1.521e-4
1.186,   1.490e-4
1.188,   1.461e-4
1.190,   1.433e-4
1.192,   1.409e-4
1.194,   1.387e-4
1.196,   1.370e-4
1.198,   1.354e-4
1.200,   1.337e-4
1.202,   1.324e-4
1.204,   1.313e-4
1.206,   1.301e-4
1.208,   1.292e-4
1.210,   1.281e-4
1.212,   1.274e-4
1.214,   1.267e-4
1.216,   1.260e-4
1.218,   1.257e-4
1.220,   1.251e-4
1.222,   1.246e-4
1.224,   1.242e-4
1.226,   1.240e-4
1.228,   1.238e-4
1.230,   1.235e-4
1.232,   1.233e-4
1.234,   1.235e-4
1.236,   1.233e-4
1.238,   1.234e-4
1.240,   1.236e-4
1.242,   1.236e-4
1.244,   1.239e-4
1.246,   1.240e-4
1.248,   1.240e-4
1.250,   1.243e-4
1.252,   1.244e-4
1.254,   1.247e-4
1.256,   1.251e-4
1.258,   1.253e-4
1.260,   1.256e-4
1.262,   1.260e-4
1.264,   1.262e-4
1.266,   1.266e-4
1.268,   1.269e-4
1.270,   1.272e-4
1.272,   1.275e-4
1.274,   1.278e-4
1.276,   1.282e-4
1.278,   1.286e-4
1.280,   1.288e-4
1.282,   1.292e-4
1.284,   1.295e-4
1.286,   1.298e-4
1.288,   1.300e-4
1.290,   1.302e-4
1.292,   1.306e-4
1.294,   1.310e-4
1.296,   1.313e-4
1.298,   1.318e-4
1.300,   1.320e-4
1.302,   1.324e-4
1.304,   1.327e-4
1.306,   1.331e-4
1.308,   1.334e-4
1.310,   1.339e-4
1.312,   1.343e-4
1.314,   1.350e-4
1.316,   1.354e-4
1.318,   1.360e-4
1.320,   1.366e-4
1.322,   1.374e-4
1.324,   1.379e-4
1.326,   1.384e-4
1.328,   1.389e-4
1.330,   1.399e-4
1.332,   1.407e-4
1.334,   1.413e-4
1.336,   1.420e-4
1.338,   1.430e-4
1.340,   1.439e-4
1.342,   1.448e-4
1.344,   1.454e-4
1.346,   1.465e-4
1.348,   1.477e-4
1.350,   1.490e-4
1.352,   1.502e-4
1.354,   1.514e-4
1.356,   1.528e-4
1.358,   1.542e-4
1.360,   1.557e-4
1.362,   1.576e-4
1.364,   1.587e-4
1.366,   1.603e-4
1.368,   1.621e-4
1.370,   1.640e-4
1.372,   1.662e-4
1.374,   1.683e-4
1.376,   1.705e-4
1.378,   1.730e-4
1.380,   1.755e-4
1.382,   1.783e-4
1.384,   1.813e-4
1.386,   1.845e-4
1.388,   1.883e-4
1.390,   1.920e-4
1.392,   1.957e-4
1.394,   2.004e-4
1.396,   2.046e-4
1.398,   2.094e-4
1.400,   2.152e-4
1.402,   2.211e-4
1.404,   2.276e-4
1.406,   2.345e-4
1.408,   2.420e-4
1.410,   2.504e-4
1.412,   2.597e-4
1.414,   2.694e-4
1.416,   2.806e-4
1.418,   2.929e-4
1.420,   3.067e-4
1.422,   3.215e-4
1.424,   3.380e-4
1.426,   3.564e-4
1.428,   3.774e-4
1.430,   4.003e-4
1.432,   4.254e-4
1.434,   4.533e-4
1.436,   4.846e-4
1.438,   5.187e-4
1.440,   5.564e-4
1.442,   5.979e-4
1.444,   6.433e-4
1.446,   6.913e-4
1.448,   7.441e-4
1.450,   8.018e-4
1.452,   8.632e-4
1.454,   9.298e-4
1.456,   9.997e-4
1.458,   1.076e-3
1.460,   1.157e-3
1.462,   1.241e-3
1.464,   1.328e-3
1.466,   1.424e-3
1.468,   1.524e-3
1.470,   1.629e-3
1.472,   1.738e-3
1.474,   1.853e-3
1.476,   1.974e-3
1.478,   2.097e-3
1.480,   2.225e-3
1.482,   2.358e-3
1.484,   2.496e-3
1.486,   2.641e-3
1.488,   2.784e-3
1.490,   2.933e-3
1.492,   3.087e-3
1.494,   3.241e-3
1.496,   3.401e-3
1.498,   3.566e-3
1.500,   3.731e-3
1.502,   3.897e-3
1.504,   4.066e-3
1.506,   4.236e-3
1.508,   4.411e-3
1.510,   4.572e-3
1.512,   4.740e-3
1.514,   4.916e-3
1.516,   5.084e-3
1.518,   5.251e-3
1.520,   5.417e-3
1.522,   5.591e-3
1.524,   5.750e-3
1.526,   5.919e-3
1.528,   6.084e-3
1.530,   6.242e-3
1.532,   6.671e-3
1.534,   6.849e-3
1.536,   7.024e-3
1.538,   7.160e-3
1.540,   7.325e-3
1.542,   7.464e-3
1.544,   7.589e-3
1.546,   7.717e-3
1.548,   7.857e-3
1.550,   7.999e-3
1.552,   8.103e-3
1.554,   8.242e-3
1.556,   8.357e-3
1.558,   8.505e-3
1.560,   8.585e-3
1.562,   8.670e-3
1.564,   8.777e-3
1.566,   8.842e-3
1.568,   8.864e-3
1.570,   9.135e-3
1.572,   9.576e-3
1.574,   9.578e-3
1.576,   9.623e-3
1.578,   9.621e-3
1.580,   9.643e-3
1.582,   9.709e-3
1.584,   9.845e-3
1.586,   1.006e-2
1.588,   1.006e-2
1.590,   1.006e-2
1.592,   1.006e-2
1.593,   1.006e-2

File: B4_BEST_500_#7_Full-255mV.txt
Mar. 28, 2023   12:40:44
Linear Sweep Voltammetry
File: d:\current work\al_oer\electrochemical test data\batch 4\500\B4_BEST_500_#7_Full-255mV.txt
Data Source:  Experiment
Instrument Model:  CHI660E
Header:
Note:

Init E (V) = 1.098

Final E (V) = 1.535

Scan Rate (V/s) = 0.010
Sample Interval (V) = 0.001
Quiet Time (sec) = 2
Sensitivity (A/V) = 0.001
Comp R (ohm) = 5.5

Results:

Channel 1:

Potential/V, Current/A
1.098,   1.836e-4
1.100,   1.621e-4
1.102,   1.443e-4
1.104,   1.299e-4
1.106,   1.183e-4
1.108,   1.084e-4
1.110,   1.004e-4
1.112,   9.373e-5
1.114,   8.795e-5
1.116,   8.291e-5
1.118,   7.851e-5
1.120,   7.467e-5
1.122,   7.126e-5
1.124,   6.831e-5
1.126,   6.574e-5
1.128,   6.330e-5
1.130,   6.117e-5
1.132,   5.935e-5
1.134,   5.764e-5
1.136,   5.619e-5
1.138,   5.481e-5
1.140,   5.358e-5
1.142,   5.247e-5
1.144,   5.141e-5
1.146,   5.053e-5
1.148,   4.969e-5
1.150,   4.887e-5
1.152,   4.820e-5
1.154,   4.757e-5
1.156,   4.704e-5
1.158,   4.656e-5
1.160,   4.601e-5
1.162,   4.557e-5
1.164,   4.517e-5
1.166,   4.473e-5
1.168,   4.447e-5
1.170,   4.414e-5
1.172,   4.392e-5
1.174,   4.371e-5
1.176,   4.343e-5
1.178,   4.329e-5
1.180,   4.319e-5
1.182,   4.310e-5
1.184,   4.300e-5
1.186,   4.289e-5
1.188,   4.280e-5
1.190,   4.277e-5
1.192,   4.270e-5
1.194,   4.263e-5
1.196,   4.268e-5
1.198,   4.270e-5
1.200,   4.271e-5
1.202,   4.271e-5
1.204,   4.273e-5
1.206,   4.292e-5
1.208,   4.297e-5
1.210,   4.299e-5
1.212,   4.309e-5
1.214,   4.314e-5
1.216,   4.323e-5
1.218,   4.327e-5
1.220,   4.339e-5
1.222,   4.347e-5
1.224,   4.360e-5
1.226,   4.371e-5
1.228,   4.384e-5
1.230,   4.396e-5
1.232,   4.408e-5
1.234,   4.425e-5
1.236,   4.437e-5
1.238,   4.450e-5
1.240,   4.463e-5
1.242,   4.478e-5
1.244,   4.498e-5
1.246,   4.512e-5
1.248,   4.521e-5
1.250,   4.536e-5
1.252,   4.550e-5
1.254,   4.561e-5
1.256,   4.577e-5
1.258,   4.596e-5
1.260,   4.611e-5
1.262,   4.626e-5
1.264,   4.640e-5
1.266,   4.658e-5
1.268,   4.684e-5
1.270,   4.703e-5
1.272,   4.723e-5
1.274,   4.748e-5
1.276,   4.773e-5
1.278,   4.789e-5
1.280,   4.807e-5
1.282,   4.826e-5
1.284,   4.856e-5
1.286,   4.882e-5
1.288,   4.905e-5
1.290,   4.932e-5
1.292,   4.969e-5
1.294,   4.992e-5
1.296,   5.013e-5
1.298,   5.040e-5
1.300,   5.072e-5
1.302,   5.123e-5
1.304,   5.151e-5
1.306,   5.186e-5
1.308,   5.226e-5
1.310,   5.286e-5
1.312,   5.325e-5
1.314,   5.382e-5
1.316,   5.425e-5
1.318,   5.470e-5
1.320,   5.518e-5
1.322,   5.566e-5
1.324,   5.623e-5
1.326,   5.664e-5
1.328,   5.721e-5
1.330,   5.787e-5
1.332,   5.857e-5
1.334,   5.940e-5
1.336,   6.003e-5
1.338,   6.070e-5
1.340,   6.152e-5
1.342,   6.230e-5
1.344,   6.314e-5
1.346,   6.410e-5
1.348,   6.507e-5
1.350,   6.605e-5
1.352,   6.703e-5
1.354,   6.822e-5
1.356,   6.951e-5
1.358,   7.080e-5
1.360,   7.211e-5
1.362,   7.354e-5
1.364,   7.498e-5
1.366,   7.669e-5
1.368,   7.866e-5
1.370,   8.060e-5
1.372,   8.320e-5
1.374,   8.504e-5
1.376,   8.760e-5
1.378,   9.000e-5
1.380,   9.298e-5
1.382,   9.621e-5
1.384,   9.991e-5
1.386,   1.039e-4
1.388,   1.084e-4
1.390,   1.131e-4
1.392,   1.186e-4
1.394,   1.247e-4
1.396,   1.314e-4
1.398,   1.390e-4
1.400,   1.473e-4
1.402,   1.565e-4
1.404,   1.669e-4
1.406,   1.779e-4
1.408,   1.901e-4
1.410,   2.038e-4
1.412,   2.185e-4
1.414,   2.342e-4
1.416,   2.515e-4
1.418,   2.702e-4
1.420,   2.907e-4
1.422,   3.125e-4
1.424,   3.361e-4
1.426,   3.613e-4
1.428,   3.886e-4
1.430,   4.179e-4
1.432,   4.484e-4
1.434,   4.811e-4
1.436,   5.157e-4
1.438,   5.522e-4
1.440,   5.912e-4
1.442,   6.322e-4
1.444,   6.750e-4
1.446,   7.197e-4
1.448,   7.665e-4
1.450,   8.155e-4
1.452,   8.665e-4
1.454,   9.199e-4
1.456,   9.743e-4
1.458,   1.031e-3
1.460,   1.090e-3
1.462,   1.150e-3
1.464,   1.212e-3
1.466,   1.274e-3
1.468,   1.339e-3
1.470,   1.404e-3
1.472,   1.471e-3
1.474,   1.539e-3
1.476,   1.607e-3
1.478,   1.676e-3
1.480,   1.745e-3
1.482,   1.813e-3
1.484,   1.881e-3
1.486,   1.950e-3
1.488,   2.018e-3
1.490,   2.086e-3
1.492,   2.152e-3
1.494,   2.218e-3
1.496,   2.284e-3
1.498,   2.348e-3
1.500,   2.412e-3
1.502,   2.477e-3
1.504,   2.541e-3
1.506,   2.600e-3
1.508,   2.660e-3
1.510,   2.712e-3
1.512,   2.768e-3
1.514,   2.823e-3
1.516,   2.876e-3
1.518,   2.929e-3
1.520,   2.976e-3
1.522,   3.022e-3
1.524,   3.066e-3
1.526,   3.111e-3
1.528,   3.158e-3
1.530,   3.202e-3
1.532,   3.245e-3
1.534,   3.287e-3
1.535,   3.304e-3

File: B4_BEST_500_#7_High_Quality(#23)-196mV.txt
Mar. 29, 2023   12:49:14
Linear Sweep Voltammetry
File: d:\current work\al_oer\electrochemical test data\batch 4\500\B4_BEST_500_#7_High_Quality(#23)-196mV.txt
Data Source:  Experiment
Instrument Model:  CHI660E
Header:
Note:

Init E (V) = 1.098

Final E (V) = 1.540

Scan Rate (V/s) = 0.010
Sample Interval (V) = 0.001
Quiet Time (sec) = 2
Sensitivity (A/V) = 0.001
Comp R (ohm) = 5.4

Results:

Channel 1:

Potential/V, Current/A
1.098,   9.864E-04
1.1,   8.245E-04
1.102,   7.049E-04
1.104,   6.160E-04
1.106,   5.482E-04
1.108,   4.963E-04
1.11,   4.547E-04
1.112,   4.207E-04
1.114,   3.924E-04
1.116,   3.699E-04
1.118,   3.500E-04
1.12,   3.332E-04
1.122,   3.186E-04
1.124,   3.062E-04
1.126,   2.958E-04
1.128,   2.864E-04
1.13,   2.782E-04
1.132,   2.713E-04
1.134,   2.647E-04
1.136,   2.589E-04
1.138,   2.540E-04
1.14,   2.496E-04
1.142,   2.458E-04
1.144,   2.425E-04
1.146,   2.391E-04
1.148,   2.362E-04
1.15,   2.339E-04
1.152,   2.317E-04
1.154,   2.297E-04
1.156,   2.281E-04
1.158,   2.265E-04
1.16,   2.251E-04
1.162,   2.237E-04
1.164,   2.232E-04
1.166,   2.223E-04
1.168,   2.215E-04
1.17,   2.208E-04
1.172,   2.204E-04
1.174,   2.201E-04
1.176,   2.197E-04
1.178,   2.194E-04
1.18,   2.195E-04
1.182,   2.194E-04
1.184,   2.195E-04
1.186,   2.195E-04
1.188,   2.198E-04
1.19,   2.202E-04
1.192,   2.206E-04
1.194,   2.206E-04
1.196,   2.213E-04
1.198,   2.219E-04
1.2,   2.223E-04
1.202,   2.232E-04
1.204,   2.236E-04
1.206,   2.244E-04
1.208,   2.254E-04
1.21,   2.262E-04
1.212,   2.269E-04
1.214,   2.281E-04
1.216,   2.288E-04
1.218,   2.299E-04
1.22,   2.309E-04
1.222,   2.320E-04
1.224,   2.330E-04
1.226,   2.341E-04
1.228,   2.356E-04
1.23,   2.366E-04
1.232,   2.377E-04
1.234,   2.393E-04
1.236,   2.405E-04
1.238,   2.422E-04
1.24,   2.433E-04
1.242,   2.447E-04
1.244,   2.463E-04
1.246,   2.478E-04
1.248,   2.495E-04
1.25,   2.512E-04
1.252,   2.527E-04
1.254,   2.545E-04
1.256,   2.563E-04
1.258,   2.580E-04
1.26,   2.603E-04
1.262,   2.619E-04
1.264,   2.639E-04
1.266,   2.659E-04
1.268,   2.682E-04
1.27,   2.705E-04
1.272,   2.726E-04
1.274,   2.748E-04
1.276,   2.775E-04
1.278,   2.799E-04
1.28,   2.827E-04
1.282,   2.852E-04
1.284,   2.883E-04
1.286,   2.915E-04
1.288,   2.943E-04
1.29,   2.976E-04
1.292,   3.011E-04
1.294,   3.046E-04
1.296,   3.081E-04
1.298,   3.125E-04
1.3,   3.163E-04
1.302,   3.205E-04
1.304,   3.248E-04
1.306,   3.297E-04
1.308,   3.349E-04
1.31,   3.402E-04
1.312,   3.465E-04
1.314,   3.528E-04
1.316,   3.594E-04
1.318,   3.667E-04
1.32,   3.741E-04
1.322,   3.825E-04
1.324,   3.920E-04
1.326,   4.014E-04
1.328,   4.117E-04
1.33,   4.225E-04
1.332,   4.332E-04
1.334,   4.451E-04
1.336,   4.574E-04
1.338,   4.697E-04
1.34,   4.826E-04
1.342,   4.962E-04
1.344,   5.093E-04
1.346,   5.225E-04
1.348,   5.366E-04
1.35,   5.509E-04
1.352,   5.648E-04
1.354,   5.782E-04
1.356,   5.925E-04
1.358,   6.059E-04
1.36,   6.192E-04
1.362,   6.331E-04
1.364,   6.458E-04
1.366,   6.586E-04
1.368,   6.719E-04
1.37,   6.853E-04
1.372,   6.993E-04
1.374,   7.140E-04
1.376,   7.290E-04
1.378,   7.449E-04
1.38,   7.623E-04
1.382,   7.812E-04
1.384,   8.008E-04
1.386,   8.257E-04
1.388,   8.540E-04
1.39,   8.844E-04
1.392,   9.166E-04
1.394,   9.485E-04
1.396,   9.883E-04
1.398,   1.036E-03
1.4,   1.079E-03
1.402,   1.134E-03
1.404,   1.190E-03
1.406,   1.248E-03
1.408,   1.313E-03
1.41,   1.388E-03
1.412,   1.462E-03
1.414,   1.546E-03
1.416,   1.635E-03
1.418,   1.718E-03
1.42,   1.800E-03
1.422,   1.875E-03
1.424,   1.925E-03
1.426,   1.954E-03
1.428,   1.963E-03
1.43,   1.931E-03
1.432,   1.866E-03
1.434,   1.795E-03
1.436,   1.688E-03
1.438,   1.581E-03
1.44,   1.464E-03
1.442,   1.349E-03
1.444,   1.236E-03
1.446,   1.136E-03
1.448,   1.031E-03
1.45,   9.345E-04
1.452,   8.569E-04
1.454,   7.830E-04
1.456,   7.230E-04
1.458,   6.699E-04
1.46,   6.217E-04
1.462,   5.760E-04
1.464,   5.330E-04
1.466,   5.022E-04
1.468,   4.747E-04
1.47,   4.491E-04
1.472,   4.256E-04
1.474,   4.024E-04
1.476,   3.812E-04
1.478,   3.625E-04
1.48,   3.473E-04
1.482,   3.329E-04
1.484,   3.237E-04
1.486,   3.143E-04
1.488,   3.046E-04
1.49,   2.967E-04
1.492,   2.884E-04
1.494,   2.797E-04
1.496,   2.722E-04
1.498,   2.640E-04
1.5,   2.580E-04
1.502,   2.509E-04
1.504,   2.451E-04
1.506,   2.400E-04
1.508,   2.352E-04
1.51,   2.307E-04
1.512,   2.272E-04
1.514,   2.241E-04
1.516,   2.209E-04
1.518,   2.164E-04
1.52,   2.120E-04
1.522,   2.099E-04
1.524,   2.071E-04
1.526,   2.045E-04
1.528,   2.015E-04
1.53,   1.978E-04
1.532,   1.942E-04
1.534,   1.917E-04
1.536,   1.883E-04
1.538,   1.868E-04
1.54,   1.833E-04

File: B4_BEST_500_#8_Full-226mV.txt
Mar. 28, 2023   12:44:16
Linear Sweep Voltammetry
File: d:\current work\al_oer\electrochemical test data\batch 4\500\B4_BEST_500_#8_Full-226mV.txt
Data Source:  Experiment
Instrument Model:  CHI660E
Header:
Note:

Init E (V) = 1.098

Final E (V) = 1.518

Scan Rate (V/s) = 0.010
Sample Interval (V) = 0.001
Quiet Time (sec) = 2
Sensitivity (A/V) = 0.001
Comp R (ohm) = 5.5

Results:

Channel 1:

Potential/V, Current/A
1.098,   2.282e-4
1.100,   2.024e-4
1.102,   1.799e-4
1.104,   1.618e-4
1.106,   1.472e-4
1.108,   1.355e-4
1.110,   1.257e-4
1.112,   1.173e-4
1.114,   1.103e-4
1.116,   1.043e-4
1.118,   9.898e-5
1.120,   9.448e-5
1.122,   9.054e-5
1.124,   8.704e-5
1.126,   8.393e-5
1.128,   8.113e-5
1.130,   7.860e-5
1.132,   7.649e-5
1.134,   7.439e-5
1.136,   7.255e-5
1.138,   7.100e-5
1.140,   6.952e-5
1.142,   6.819e-5
1.144,   6.707e-5
1.146,   6.595e-5
1.148,   6.500e-5
1.150,   6.411e-5
1.152,   6.330e-5
1.154,   6.259e-5
1.156,   6.200e-5
1.158,   6.143e-5
1.160,   6.088e-5
1.162,   6.030e-5
1.164,   5.995e-5
1.166,   5.964e-5
1.168,   5.924e-5
1.170,   5.897e-5
1.172,   5.877e-5
1.174,   5.853e-5
1.176,   5.833e-5
1.178,   5.813e-5
1.180,   5.804e-5
1.182,   5.794e-5
1.184,   5.784e-5
1.186,   5.778e-5
1.188,   5.777e-5
1.190,   5.778e-5
1.192,   5.774e-5
1.194,   5.778e-5
1.196,   5.790e-5
1.198,   5.795e-5
1.200,   5.803e-5
1.202,   5.812e-5
1.204,   5.822e-5
1.206,   5.837e-5
1.208,   5.852e-5
1.210,   5.866e-5
1.212,   5.887e-5
1.214,   5.904e-5
1.216,   5.919e-5
1.218,   5.935e-5
1.220,   5.961e-5
1.222,   5.986e-5
1.224,   6.004e-5
1.226,   6.028e-5
1.228,   6.056e-5
1.230,   6.083e-5
1.232,   6.102e-5
1.234,   6.136e-5
1.236,   6.165e-5
1.238,   6.195e-5
1.240,   6.223e-5
1.242,   6.248e-5
1.244,   6.285e-5
1.246,   6.319e-5
1.248,   6.347e-5
1.250,   6.383e-5
1.252,   6.427e-5
1.254,   6.463e-5
1.256,   6.493e-5
1.258,   6.530e-5
1.260,   6.579e-5
1.262,   6.616e-5
1.264,   6.657e-5
1.266,   6.705e-5
1.268,   6.753e-5
1.270,   6.797e-5
1.272,   6.846e-5
1.274,   6.893e-5
1.276,   6.950e-5
1.278,   7.006e-5
1.280,   7.058e-5
1.282,   7.116e-5
1.284,   7.182e-5
1.286,   7.252e-5
1.288,   7.314e-5
1.290,   7.380e-5
1.292,   7.467e-5
1.294,   7.540e-5
1.296,   7.616e-5
1.298,   7.704e-5
1.300,   7.793e-5
1.302,   7.880e-5
1.304,   7.976e-5
1.306,   8.072e-5
1.308,   8.177e-5
1.310,   8.289e-5
1.312,   8.398e-5
1.314,   8.510e-5
1.316,   8.641e-5
1.318,   8.766e-5
1.320,   8.904e-5
1.322,   9.040e-5
1.324,   9.213e-5
1.326,   9.361e-5
1.328,   9.512e-5
1.330,   9.681e-5
1.332,   9.862e-5
1.334,   1.005e-4
1.336,   1.024e-4
1.338,   1.044e-4
1.340,   1.066e-4
1.342,   1.087e-4
1.344,   1.110e-4
1.346,   1.134e-4
1.348,   1.161e-4
1.350,   1.188e-4
1.352,   1.214e-4
1.354,   1.242e-4
1.356,   1.273e-4
1.358,   1.304e-4
1.360,   1.337e-4
1.362,   1.372e-4
1.364,   1.409e-4
1.366,   1.447e-4
1.368,   1.486e-4
1.370,   1.528e-4
1.372,   1.574e-4
1.374,   1.621e-4
1.376,   1.670e-4
1.378,   1.723e-4
1.380,   1.779e-4
1.382,   1.840e-4
1.384,   1.904e-4
1.386,   1.971e-4
1.388,   2.049e-4
1.390,   2.130e-4
1.392,   2.219e-4
1.394,   2.318e-4
1.396,   2.427e-4
1.398,   2.547e-4
1.400,   2.680e-4
1.402,   2.827e-4
1.404,   2.993e-4
1.406,   3.178e-4
1.408,   3.385e-4
1.410,   3.615e-4
1.412,   3.876e-4
1.414,   4.170e-4
1.416,   4.495e-4
1.418,   4.858e-4
1.420,   5.261e-4
1.422,   5.708e-4
1.424,   6.197e-4
1.426,   6.727e-4
1.428,   7.296e-4
1.430,   7.906e-4
1.432,   8.539e-4
1.434,   9.210e-4
1.436,   9.913e-4
1.438,   1.065e-3
1.440,   1.142e-3
1.442,   1.223e-3
1.444,   1.306e-3
1.446,   1.394e-3
1.448,   1.486e-3
1.450,   1.584e-3
1.452,   1.687e-3
1.454,   1.792e-3
1.456,   1.900e-3
1.458,   2.013e-3
1.460,   2.131e-3
1.462,   2.253e-3
1.464,   2.373e-3
1.466,   2.503e-3
1.468,   2.635e-3
1.470,   2.773e-3
1.472,   2.908e-3
1.474,   3.028e-3
1.476,   3.151e-3
1.478,   3.286e-3
1.480,   3.410e-3
1.482,   3.525e-3
1.484,   3.629e-3
1.486,   3.741e-3
1.488,   3.847e-3
1.490,   3.942e-3
1.492,   4.020e-3
1.494,   4.099e-3
1.496,   4.192e-3
1.498,   4.283e-3
1.500,   4.386e-3
1.502,   4.461e-3
1.504,   4.534e-3
1.506,   4.579e-3
1.508,   4.645e-3
1.510,   4.737e-3
1.512,   4.811e-3
1.514,   4.875e-3
1.516,   4.935e-3
1.518,   4.983e-3