Folder: DASH/Experimental Records and Raw Data/batch4/final400 (part 4)

File: B4_VARIANCE_400_#7_High_Quality(#31)-302mV.txt
Mar. 27, 2023   19:09:06
Linear Sweep Voltammetry
File: d:\current work\al_oer\electrochemical test data\batch 4\400\B4_VARIANCE_400_#7_High_Quality(#31)-302mV.txt
Data Source:  Experiment
Instrument Model:  CHI660E
Header:
Note:

Init E (V) = 1.123

Final E (V) = 1.622

Scan Rate (V/s) = 0.010
Sample Interval (V) = 0.001
Quiet Time (sec) = 2
Sensitivity (A/V) = 0.001
Comp R (ohm) = 6.6

Results:

Channel 1:

Potential/V, Current/A
1.123,   -5.468e-6
1.125,   -1.501e-6
1.127,   -4.561e-8
1.129,   9.373e-7
1.131,   1.926e-6
1.133,   2.509e-6
1.135,   2.902e-6
1.137,   3.226e-6
1.139,   3.697e-6
1.141,   4.088e-6
1.143,   4.368e-6
1.145,   4.526e-6
1.147,   4.798e-6
1.149,   4.999e-6
1.151,   5.159e-6
1.153,   5.323e-6
1.155,   5.499e-6
1.157,   5.643e-6
1.159,   5.790e-6
1.161,   5.898e-6
1.163,   6.034e-6
1.165,   6.185e-6
1.167,   6.284e-6
1.169,   6.404e-6
1.171,   6.482e-6
1.173,   6.604e-6
1.175,   6.689e-6
1.177,   6.794e-6
1.179,   6.873e-6
1.181,   7.021e-6
1.183,   7.104e-6
1.185,   7.172e-6
1.187,   7.260e-6
1.189,   7.443e-6
1.191,   7.532e-6
1.193,   7.579e-6
1.195,   7.705e-6
1.197,   7.775e-6
1.199,   7.886e-6
1.201,   7.974e-6
1.203,   8.039e-6
1.205,   8.192e-6
1.207,   8.259e-6
1.209,   8.356e-6
1.211,   8.418e-6
1.213,   8.518e-6
1.215,   8.589e-6
1.217,   8.741e-6
1.219,   8.758e-6
1.221,   8.811e-6
1.223,   8.906e-6
1.225,   8.991e-6
1.227,   9.035e-6
1.229,   9.155e-6
1.231,   9.285e-6
1.233,   9.364e-6
1.235,   9.359e-6
1.237,   9.395e-6
1.239,   9.507e-6
1.241,   9.556e-6
1.243,   9.614e-6
1.245,   9.740e-6
1.247,   9.792e-6
1.249,   9.907e-6
1.251,   9.879e-6
1.253,   9.998e-6
1.255,   9.984e-6
1.257,   1.003e-5
1.259,   1.009e-5
1.261,   1.014e-5
1.263,   1.016e-5
1.265,   1.016e-5
1.267,   1.017e-5
1.269,   1.025e-5
1.271,   1.021e-5
1.273,   1.020e-5
1.275,   1.023e-5
1.277,   1.017e-5
1.279,   1.033e-5
1.281,   1.039e-5
1.283,   1.036e-5
1.285,   1.049e-5
1.287,   1.052e-5
1.289,   1.045e-5
1.291,   1.052e-5
1.293,   1.052e-5
1.295,   1.055e-5
1.297,   1.056e-5
1.299,   1.055e-5
1.301,   1.063e-5
1.303,   1.063e-5
1.305,   1.058e-5
1.307,   1.062e-5
1.309,   1.064e-5
1.311,   1.070e-5
1.313,   1.066e-5
1.315,   1.068e-5
1.317,   1.075e-5
1.319,   1.072e-5
1.321,   1.075e-5
1.323,   1.079e-5
1.325,   1.086e-5
1.327,   1.083e-5
1.329,   1.088e-5
1.331,   1.089e-5
1.333,   1.101e-5
1.335,   1.102e-5
1.337,   1.105e-5
1.339,   1.106e-5
1.341,   1.116e-5
1.343,   1.117e-5
1.345,   1.125e-5
1.347,   1.127e-5
1.349,   1.140e-5
1.351,   1.140e-5
1.353,   1.151e-5
1.355,   1.159e-5
1.357,   1.168e-5
1.359,   1.175e-5
1.361,   1.191e-5
1.363,   1.197e-5
1.365,   1.214e-5
1.367,   1.218e-5
1.369,   1.214e-5
1.371,   1.237e-5
1.373,   1.291e-5
1.375,   1.274e-5
1.377,   1.285e-5
1.379,   1.313e-5
1.381,   1.326e-5
1.383,   1.345e-5
1.385,   1.368e-5
1.387,   1.402e-5
1.389,   1.432e-5
1.391,   1.463e-5
1.393,   1.496e-5
1.395,   1.565e-5
1.397,   1.609e-5
1.399,   1.633e-5
1.401,   1.681e-5
1.403,   1.742e-5
1.405,   1.814e-5
1.407,   1.886e-5
1.409,   1.972e-5
1.411,   2.069e-5
1.413,   2.173e-5
1.415,   2.289e-5
1.417,   2.415e-5
1.419,   2.560e-5
1.421,   2.718e-5
1.423,   2.897e-5
1.425,   3.095e-5
1.427,   3.313e-5
1.429,   3.566e-5
1.431,   3.826e-5
1.433,   4.149e-5
1.435,   4.506e-5
1.437,   4.861e-5
1.439,   5.270e-5
1.441,   5.714e-5
1.443,   6.274e-5
1.445,   6.789e-5
1.447,   7.419e-5
1.449,   8.075e-5
1.451,   8.843e-5
1.453,   9.648e-5
1.455,   1.053e-4
1.457,   1.153e-4
1.459,   1.256e-4
1.461,   1.373e-4
1.463,   1.499e-4
1.465,   1.639e-4
1.467,   1.786e-4
1.469,   1.947e-4
1.471,   2.123e-4
1.473,   2.311e-4
1.475,   2.521e-4
1.477,   2.738e-4
1.479,   2.977e-4
1.481,   3.227e-4
1.483,   3.502e-4
1.485,   3.802e-4
1.487,   4.117e-4
1.489,   4.458e-4
1.491,   4.841e-4
1.493,   5.221e-4
1.495,   5.638e-4
1.497,   6.057e-4
1.499,   6.528e-4
1.501,   7.024e-4
1.503,   7.563e-4
1.505,   8.111e-4
1.507,   8.717e-4
1.509,   9.338e-4
1.511,   1.002e-3
1.513,   1.073e-3
1.515,   1.149e-3
1.517,   1.225e-3
1.519,   1.305e-3
1.521,   1.390e-3
1.523,   1.477e-3
1.525,   1.570e-3
1.527,   1.669e-3
1.529,   1.766e-3
1.531,   1.869e-3
1.533,   1.972e-3
1.535,   2.078e-3
1.537,   2.208e-3
1.539,   2.329e-3
1.541,   2.442e-3
1.543,   2.568e-3
1.545,   2.679e-3
1.547,   2.798e-3
1.549,   2.971e-3
1.551,   3.103e-3
1.553,   3.214e-3
1.555,   3.373e-3
1.557,   3.559e-3
1.559,   3.693e-3
1.561,   3.805e-3
1.563,   3.945e-3
1.565,   4.045e-3
1.567,   4.174e-3
1.569,   4.433e-3
1.571,   4.574e-3
1.573,   4.703e-3
1.575,   4.892e-3
1.577,   5.102e-3
1.579,   5.171e-3
1.581,   5.410e-3
1.583,   5.710e-3
1.585,   5.820e-3
1.587,   5.874e-3
1.589,   6.041e-3
1.591,   6.139e-3
1.593,   6.262e-3
1.595,   6.620e-3
1.597,   6.787e-3
1.599,   6.859e-3
1.601,   7.000e-3
1.603,   7.345e-3
1.605,   7.372e-3
1.607,   7.688e-3
1.609,   7.871e-3
1.611,   7.828e-3
1.613,   8.204e-3
1.615,   8.552e-3
1.617,   8.791e-3
1.619,   8.990e-3
1.621,   8.908e-3
1.622,   9.139e-3