Folder: DASH/Experimental Records, Raw Data, and Supplementary Notes and Figures/batch5/final500 (part 2)

File: B5_BEST_500_#1_High_Quality(#19)-192mV.txt
June 9, 2023   16:21:05
Linear Sweep Voltammetry
File: d:\current work\al_oer\electrochemical test data\batch 5\500\B5_BEST_500_#1_High_Quality(#19)-192mV.txt
Data Source:  Experiment
Instrument Model:  CHI660E
Header:
Note:

Init E (V) = 0.894

Final E (V) = 1.492

Scan Rate (V/s) = 0.010
Sample Interval (V) = 0.001
Quiet Time (sec) = 2
Sensitivity (A/V) = 0.001
Comp R (ohm) = 4.0

Results:

Channel 1:

Potential/V, Current/A
0.894,   1.006e-4
0.896,   1.490e-4
0.898,   1.514e-4
0.900,   1.616e-4
0.902,   1.682e-4
0.904,   1.708e-4
0.906,   1.704e-4
0.908,   1.646e-4
0.910,   1.602e-4
0.912,   1.587e-4
0.914,   1.614e-4
0.916,   1.663e-4
0.918,   1.724e-4
0.920,   1.743e-4
0.922,   1.719e-4
0.924,   1.642e-4
0.926,   1.629e-4
0.928,   1.618e-4
0.930,   1.653e-4
0.932,   1.729e-4
0.934,   1.778e-4
0.936,   1.769e-4
0.938,   1.719e-4
0.940,   1.677e-4
0.942,   1.657e-4
0.944,   1.657e-4
0.946,   1.698e-4
0.948,   1.780e-4
0.950,   1.818e-4
0.952,   1.804e-4
0.954,   1.759e-4
0.956,   1.679e-4
0.958,   1.693e-4
0.960,   1.702e-4
0.962,   1.759e-4
0.964,   1.851e-4
0.966,   1.884e-4
0.968,   1.843e-4
0.970,   1.774e-4
0.972,   1.750e-4
0.974,   1.735e-4
0.976,   1.765e-4
0.978,   1.838e-4
0.980,   1.923e-4
0.982,   1.946e-4
0.984,   1.895e-4
0.986,   1.829e-4
0.988,   1.795e-4
0.990,   1.795e-4
0.992,   1.811e-4
0.994,   1.925e-4
0.996,   1.996e-4
0.998,   1.986e-4
1.000,   1.922e-4
1.002,   1.882e-4
1.004,   1.856e-4
1.006,   1.863e-4
1.008,   1.934e-4
1.010,   2.014e-4
1.012,   2.075e-4
1.014,   2.025e-4
1.016,   1.973e-4
1.018,   1.898e-4
1.020,   1.906e-4
1.022,   1.934e-4
1.024,   2.027e-4
1.026,   2.114e-4
1.028,   2.150e-4
1.030,   2.103e-4
1.032,   2.019e-4
1.034,   1.975e-4
1.036,   1.975e-4
1.038,   2.020e-4
1.040,   2.116e-4
1.042,   2.197e-4
1.044,   2.222e-4
1.046,   2.143e-4
1.048,   2.058e-4
1.050,   2.055e-4
1.052,   2.041e-4
1.054,   2.109e-4
1.056,   2.217e-4
1.058,   2.281e-4
1.060,   2.287e-4
1.062,   2.205e-4
1.064,   2.126e-4
1.066,   2.109e-4
1.068,   2.130e-4
1.070,   2.211e-4
1.072,   2.305e-4
1.074,   2.361e-4
1.076,   2.349e-4
1.078,   2.264e-4
1.080,   2.185e-4
1.082,   2.179e-4
1.084,   2.232e-4
1.086,   2.336e-4
1.088,   2.427e-4
1.090,   2.447e-4
1.092,   2.394e-4
1.094,   2.303e-4
1.096,   2.244e-4
1.098,   2.244e-4
1.100,   2.336e-4
1.102,   2.449e-4
1.104,   2.541e-4
1.106,   2.538e-4
1.108,   2.464e-4
1.110,   2.374e-4
1.112,   2.322e-4
1.114,   2.322e-4
1.116,   2.446e-4
1.118,   2.593e-4
1.120,   2.672e-4
1.122,   2.601e-4
1.124,   2.538e-4
1.126,   2.412e-4
1.128,   2.374e-4
1.130,   2.438e-4
1.132,   2.578e-4
1.134,   2.716e-4
1.136,   2.777e-4
1.138,   2.693e-4
1.140,   2.609e-4
1.142,   2.517e-4
1.144,   2.482e-4
1.146,   2.568e-4
1.148,   2.727e-4
1.150,   2.855e-4
1.152,   2.899e-4
1.154,   2.788e-4
1.156,   2.644e-4
1.158,   2.586e-4
1.160,   2.574e-4
1.162,   2.721e-4
1.164,   2.877e-4
1.166,   2.997e-4
1.168,   2.994e-4
1.170,   2.845e-4
1.172,   2.754e-4
1.174,   2.684e-4
1.176,   2.687e-4
1.178,   2.811e-4
1.180,   3.039e-4
1.182,   3.131e-4
1.184,   3.140e-4
1.186,   2.943e-4
1.188,   2.838e-4
1.190,   2.759e-4
1.192,   2.821e-4
1.194,   3.015e-4
1.196,   3.224e-4
1.198,   3.279e-4
1.200,   3.192e-4
1.202,   3.023e-4
1.204,   2.925e-4
1.206,   2.848e-4
1.208,   2.981e-4
1.210,   3.220e-4
1.212,   3.398e-4
1.214,   3.437e-4
1.216,   3.305e-4
1.218,   3.072e-4
1.220,   2.942e-4
1.222,   2.983e-4
1.224,   3.162e-4
1.226,   3.399e-4
1.228,   3.597e-4
1.230,   3.591e-4
1.232,   3.386e-4
1.234,   3.167e-4
1.236,   3.057e-4
1.238,   3.100e-4
1.240,   3.335e-4
1.242,   3.621e-4
1.244,   3.759e-4
1.246,   3.691e-4
1.248,   3.471e-4
1.250,   3.257e-4
1.252,   3.180e-4
1.254,   3.319e-4
1.256,   3.547e-4
1.258,   3.837e-4
1.260,   3.933e-4
1.262,   3.844e-4
1.264,   3.599e-4
1.266,   3.372e-4
1.268,   3.379e-4
1.270,   3.527e-4
1.272,   3.831e-4
1.274,   4.055e-4
1.276,   4.098e-4
1.278,   3.869e-4
1.280,   3.668e-4
1.282,   3.480e-4
1.284,   3.529e-4
1.286,   3.740e-4
1.288,   4.058e-4
1.290,   4.293e-4
1.292,   4.255e-4
1.294,   4.002e-4
1.296,   3.688e-4
1.298,   3.619e-4
1.300,   3.760e-4
1.302,   4.048e-4
1.304,   4.355e-4
1.306,   4.523e-4
1.308,   4.397e-4
1.310,   4.105e-4
1.312,   3.867e-4
1.314,   3.793e-4
1.316,   4.011e-4
1.318,   4.360e-4
1.320,   4.656e-4
1.322,   4.753e-4
1.324,   4.592e-4
1.326,   4.285e-4
1.328,   4.036e-4
1.330,   4.043e-4
1.332,   4.303e-4
1.334,   4.699e-4
1.336,   5.025e-4
1.338,   5.071e-4
1.340,   4.869e-4
1.342,   4.553e-4
1.344,   4.327e-4
1.346,   4.316e-4
1.348,   4.743e-4
1.350,   5.204e-4
1.352,   5.473e-4
1.354,   5.437e-4
1.356,   5.121e-4
1.358,   4.778e-4
1.360,   4.679e-4
1.362,   4.948e-4
1.364,   5.521e-4
1.366,   6.006e-4
1.368,   6.210e-4
1.370,   6.087e-4
1.372,   5.653e-4
1.374,   5.482e-4
1.376,   5.513e-4
1.378,   6.024e-4
1.380,   6.763e-4
1.382,   7.324e-4
1.384,   7.436e-4
1.386,   7.169e-4
1.388,   6.821e-4
1.390,   6.800e-4
1.392,   7.258e-4
1.394,   8.170e-4
1.396,   9.164e-4
1.398,   9.780e-4
1.400,   9.954e-4
1.402,   9.784e-4
1.404,   9.456e-4
1.406,   9.657e-4
1.408,   1.064e-3
1.410,   1.220e-3
1.412,   1.393e-3
1.414,   1.501e-3
1.416,   1.520e-3
1.418,   1.500e-3
1.420,   1.521e-3
1.422,   1.639e-3
1.424,   1.901e-3
1.426,   2.239e-3
1.428,   2.560e-3
1.430,   2.754e-3
1.432,   2.851e-3
1.434,   2.965e-3
1.436,   3.244e-3
1.438,   3.766e-3
1.440,   4.446e-3
1.442,   5.096e-3
1.444,   5.498e-3
1.446,   5.588e-3
1.448,   5.514e-3
1.450,   5.614e-3
1.452,   6.043e-3
1.454,   6.776e-3
1.456,   7.599e-3
1.458,   8.106e-3
1.460,   8.403e-3
1.462,   8.606e-3
1.464,   8.829e-3
1.466,   9.376e-3
1.468,   9.815e-3
1.470,   1.007e-2
1.472,   1.007e-2
1.474,   1.007e-2
1.476,   1.007e-2
1.478,   1.007e-2
1.480,   1.007e-2
1.482,   1.007e-2
1.484,   1.007e-2
1.486,   1.007e-2
1.488,   1.007e-2
1.490,   1.007e-2
1.492,   1.007e-2

File: B5_BEST_500_#1_High_Quality(#20)-215mV.txt
June 9, 2023   14:27:16
Linear Sweep Voltammetry
File: d:\current work\al_oer\electrochemical test data\batch 5\500\B5_BEST_500_#1_High_Quality(#20)-215mV.txt
Data Source:  Experiment
Instrument Model:  CHI660E
Header:
Note:

Init E (V) = 0.890

Final E (V) = 1.532

Scan Rate (V/s) = 0.010
Sample Interval (V) = 0.001
Quiet Time (sec) = 2
Sensitivity (A/V) = 0.001

Results:

Channel 1:

Potential/V, Current/A
0.890,   2.532e-4
0.893,   3.493e-4
0.896,   3.517e-4
0.899,   3.477e-4
0.902,   3.459e-4
0.905,   3.380e-4
0.908,   3.368e-4
0.911,   3.332e-4
0.914,   3.272e-4
0.917,   3.240e-4
0.920,   3.200e-4
0.923,   3.187e-4
0.926,   3.129e-4
0.929,   3.131e-4
0.932,   3.095e-4
0.935,   3.052e-4
0.938,   3.033e-4
0.941,   2.998e-4
0.944,   2.972e-4
0.947,   2.959e-4
0.950,   2.941e-4
0.953,   2.920e-4
0.956,   2.894e-4
0.959,   2.891e-4
0.962,   2.861e-4
0.965,   2.857e-4
0.968,   2.812e-4
0.971,   2.819e-4
0.974,   2.813e-4
0.977,   2.785e-4
0.980,   2.766e-4
0.983,   2.772e-4
0.986,   2.752e-4
0.989,   2.763e-4
0.992,   2.740e-4
0.995,   2.748e-4
0.998,   2.737e-4
1.001,   2.693e-4
1.004,   2.715e-4
1.007,   2.707e-4
1.010,   2.710e-4
1.013,   2.692e-4
1.016,   2.679e-4
1.019,   2.697e-4
1.022,   2.673e-4
1.025,   2.690e-4
1.028,   2.691e-4
1.031,   2.656e-4
1.034,   2.691e-4
1.037,   2.681e-4
1.040,   2.688e-4
1.043,   2.655e-4
1.046,   2.677e-4
1.049,   2.677e-4
1.052,   2.688e-4
1.055,   2.674e-4
1.058,   2.707e-4
1.061,   2.699e-4
1.064,   2.701e-4
1.067,   2.680e-4
1.070,   2.704e-4
1.073,   2.728e-4
1.076,   2.704e-4
1.079,   2.701e-4
1.082,   2.735e-4
1.085,   2.752e-4
1.088,   2.740e-4
1.091,   2.733e-4
1.094,   2.771e-4
1.097,   2.787e-4
1.100,   2.786e-4
1.103,   2.794e-4
1.106,   2.802e-4
1.109,   2.841e-4
1.112,   2.824e-4
1.115,   2.846e-4
1.118,   2.883e-4
1.121,   2.893e-4
1.124,   2.882e-4
1.127,   2.904e-4
1.130,   2.965e-4
1.133,   2.957e-4
1.136,   2.958e-4
1.139,   2.969e-4
1.142,   2.973e-4
1.145,   3.006e-4
1.148,   3.000e-4
1.151,   3.042e-4
1.154,   3.071e-4
1.157,   3.105e-4
1.160,   3.069e-4
1.163,   3.100e-4
1.166,   3.137e-4
1.169,   3.181e-4
1.172,   3.165e-4
1.175,   3.210e-4
1.178,   3.241e-4
1.181,   3.287e-4
1.184,   3.259e-4
1.187,   3.332e-4
1.190,   3.345e-4
1.193,   3.383e-4
1.196,   3.366e-4
1.199,   3.432e-4
1.202,   3.442e-4
1.205,   3.503e-4
1.208,   3.468e-4
1.211,   3.534e-4
1.214,   3.565e-4
1.217,   3.601e-4
1.220,   3.628e-4
1.223,   3.668e-4
1.226,   3.700e-4
1.229,   3.719e-4
1.232,   3.735e-4
1.235,   3.796e-4
1.238,   3.808e-4
1.241,   3.842e-4
1.244,   3.854e-4
1.247,   3.907e-4
1.250,   3.929e-4
1.253,   3.970e-4
1.256,   3.958e-4
1.259,   4.023e-4
1.262,   4.068e-4
1.265,   4.069e-4
1.268,   4.071e-4
1.271,   4.134e-4
1.274,   4.156e-4
1.277,   4.173e-4
1.280,   4.196e-4
1.283,   4.238e-4
1.286,   4.237e-4
1.289,   4.269e-4
1.292,   4.319e-4
1.295,   4.336e-4
1.298,   4.335e-4
1.301,   4.362e-4
1.304,   4.411e-4
1.307,   4.436e-4
1.310,   4.459e-4
1.313,   4.498e-4
1.316,   4.504e-4
1.319,   4.554e-4
1.322,   4.601e-4
1.325,   4.607e-4
1.328,   4.640e-4
1.331,   4.722e-4
1.334,   4.759e-4
1.337,   4.761e-4
1.340,   4.812e-4
1.343,   4.869e-4
1.346,   4.967e-4
1.349,   4.970e-4
1.352,   4.990e-4
1.355,   5.083e-4
1.358,   5.129e-4
1.361,   5.144e-4
1.364,   5.246e-4
1.367,   5.347e-4
1.370,   5.450e-4
1.373,   5.545e-4
1.376,   5.619e-4
1.379,   5.731e-4
1.382,   5.891e-4
1.385,   5.992e-4
1.388,   6.145e-4
1.391,   6.278e-4
1.394,   6.467e-4
1.397,   6.630e-4
1.400,   6.897e-4
1.403,   7.148e-4
1.406,   7.474e-4
1.409,   7.728e-4
1.412,   8.297e-4
1.415,   8.675e-4
1.418,   9.308e-4
1.421,   9.753e-4
1.424,   1.066e-3
1.427,   1.145e-3
1.430,   1.238e-3
1.433,   1.337e-3
1.436,   1.463e-3
1.439,   1.599e-3
1.442,   1.749e-3
1.445,   1.884e-3
1.448,   2.106e-3
1.451,   2.290e-3
1.454,   2.495e-3
1.457,   2.674e-3
1.460,   2.943e-3
1.463,   3.180e-3
1.466,   3.427e-3
1.469,   3.697e-3
1.472,   4.029e-3
1.475,   4.343e-3
1.478,   4.651e-3
1.481,   4.950e-3
1.484,   5.242e-3
1.487,   5.621e-3
1.490,   5.918e-3
1.493,   6.179e-3
1.496,   6.594e-3
1.499,   6.944e-3
1.502,   7.283e-3
1.505,   7.609e-3
1.508,   8.079e-3
1.511,   8.389e-3
1.514,   8.686e-3
1.517,   9.108e-3
1.520,   9.503e-3
1.523,   9.796e-3
1.526,   1.002e-2
1.529,   1.007e-2
1.532,   1.007e-2

File: B5_BEST_500_#1_High_Quality(#22)-215mV.txt
June 9, 2023   15:02:44
Linear Sweep Voltammetry
File: d:\current work\al_oer\electrochemical test data\batch 5\500\B5_BEST_500_#1_High_Quality(#22)-215mV.txt
Data Source:  Experiment
Instrument Model:  CHI660E
Header:
Note:

Init E (V) = 0.888

Final E (V) = 1.495

Scan Rate (V/s) = 0.010
Sample Interval (V) = 0.001
Quiet Time (sec) = 2
Sensitivity (A/V) = 0.001
Comp R (ohm) = 4.8

Results:

Channel 1:

Potential/V, Current/A
0.888,   2.342e-4
0.891,   2.609e-4
0.894,   2.567e-4
0.897,   2.544e-4
0.900,   2.525e-4
0.903,   2.519e-4
0.906,   2.501e-4
0.909,   2.505e-4
0.912,   2.477e-4
0.915,   2.445e-4
0.918,   2.403e-4
0.921,   2.360e-4
0.924,   2.313e-4
0.927,   2.286e-4
0.930,   2.256e-4
0.933,   2.241e-4
0.936,   2.242e-4
0.939,   2.221e-4
0.942,   2.204e-4
0.945,   2.183e-4
0.948,   2.156e-4
0.951,   2.122e-4
0.954,   2.094e-4
0.957,   2.045e-4
0.960,   2.036e-4
0.963,   2.018e-4
0.966,   2.015e-4
0.969,   2.016e-4
0.972,   2.001e-4
0.975,   2.014e-4
0.978,   2.030e-4
0.981,   2.016e-4
0.984,   2.005e-4
0.987,   1.988e-4
0.990,   1.969e-4
0.993,   1.952e-4
0.996,   1.944e-4
0.999,   1.947e-4
1.002,   1.948e-4
1.005,   1.954e-4
1.008,   1.960e-4
1.011,   1.965e-4
1.014,   1.953e-4
1.017,   1.927e-4
1.020,   1.900e-4
1.023,   1.876e-4
1.026,   1.857e-4
1.029,   1.856e-4
1.032,   1.837e-4
1.035,   1.863e-4
1.038,   1.886e-4
1.041,   1.904e-4
1.044,   1.916e-4
1.047,   1.927e-4
1.050,   1.930e-4
1.053,   1.922e-4
1.056,   1.920e-4
1.059,   1.900e-4
1.062,   1.901e-4
1.065,   1.907e-4
1.068,   1.893e-4
1.071,   1.921e-4
1.074,   1.931e-4
1.077,   1.929e-4
1.080,   1.931e-4
1.083,   1.921e-4
1.086,   1.911e-4
1.089,   1.892e-4
1.092,   1.878e-4
1.095,   1.883e-4
1.098,   1.878e-4
1.101,   1.903e-4
1.104,   1.941e-4
1.107,   1.972e-4
1.110,   2.000e-4
1.113,   2.030e-4
1.116,   2.023e-4
1.119,   2.016e-4
1.122,   2.006e-4
1.125,   2.001e-4
1.128,   1.999e-4
1.131,   2.012e-4
1.134,   2.028e-4
1.137,   2.053e-4
1.140,   2.076e-4
1.143,   2.091e-4
1.146,   2.097e-4
1.149,   2.094e-4
1.152,   2.078e-4
1.155,   2.055e-4
1.158,   2.048e-4
1.161,   2.043e-4
1.164,   2.024e-4
1.167,   2.079e-4
1.170,   2.129e-4
1.173,   2.186e-4
1.176,   2.248e-4
1.179,   2.296e-4
1.182,   2.321e-4
1.185,   2.302e-4
1.188,   2.288e-4
1.191,   2.283e-4
1.194,   2.260e-4
1.197,   2.288e-4
1.200,   2.308e-4
1.203,   2.363e-4
1.206,   2.392e-4
1.209,   2.429e-4
1.212,   2.439e-4
1.215,   2.436e-4
1.218,   2.407e-4
1.221,   2.362e-4
1.224,   2.337e-4
1.227,   2.330e-4
1.230,   2.372e-4
1.233,   2.441e-4
1.236,   2.560e-4
1.239,   2.670e-4
1.242,   2.767e-4
1.245,   2.832e-4
1.248,   2.866e-4
1.251,   2.797e-4
1.254,   2.728e-4
1.257,   2.673e-4
1.260,   2.669e-4
1.263,   2.663e-4
1.266,   2.778e-4
1.269,   2.875e-4
1.272,   2.963e-4
1.275,   2.985e-4
1.278,   2.981e-4
1.281,   2.940e-4
1.284,   2.845e-4
1.287,   2.721e-4
1.290,   2.688e-4
1.293,   2.820e-4
1.296,   2.918e-4
1.299,   3.122e-4
1.302,   3.192e-4
1.305,   3.291e-4
1.308,   3.309e-4
1.311,   3.185e-4
1.314,   3.106e-4
1.317,   2.995e-4
1.320,   2.949e-4
1.323,   2.762e-4
1.326,   2.874e-4
1.329,   3.217e-4
1.332,   3.530e-4
1.335,   3.740e-4
1.338,   3.900e-4
1.341,   3.888e-4
1.344,   3.628e-4
1.347,   3.356e-4
1.350,   3.049e-4
1.353,   3.088e-4
1.356,   3.132e-4
1.359,   3.371e-4
1.362,   3.599e-4
1.365,   3.852e-4
1.368,   3.898e-4
1.371,   3.873e-4
1.374,   3.705e-4
1.377,   3.495e-4
1.380,   3.406e-4
1.383,   3.247e-4
1.386,   3.682e-4
1.389,   3.723e-4
1.392,   4.088e-4
1.395,   4.448e-4
1.398,   4.889e-4
1.401,   5.218e-4
1.404,   5.465e-4
1.407,   5.630e-4
1.410,   5.735e-4
1.413,   5.982e-4
1.416,   6.308e-4
1.419,   6.759e-4
1.422,   7.420e-4
1.425,   8.296e-4
1.428,   9.218e-4
1.431,   1.041e-3
1.434,   1.172e-3
1.437,   1.324e-3
1.440,   1.499e-3
1.443,   1.698e-3
1.446,   1.927e-3
1.449,   2.237e-3
1.452,   2.621e-3
1.455,   3.103e-3
1.458,   3.694e-3
1.461,   4.412e-3
1.464,   5.180e-3
1.467,   5.956e-3
1.470,   6.781e-3
1.473,   7.660e-3
1.476,   8.544e-3
1.479,   9.308e-3
1.482,   9.929e-3
1.485,   1.007e-2
1.488,   1.007e-2
1.491,   1.007e-2
1.494,   1.007e-2
1.495,   1.007e-2

File: B5_BEST_500_#1_High_Quality(#25)-196mV.txt
June 9, 2023   11:44:07
Linear Sweep Voltammetry
File: d:\current work\al_oer\electrochemical test data\batch 5\500\B5_BEST_500_#1_High_Quality(#25)-196mV.txt
Data Source:  Experiment
Instrument Model:  CHI660E
Header:
Note:

Init E (V) = 0.893

Final E (V) = 1.494

Scan Rate (V/s) = 0.010
Sample Interval (V) = 0.001
Quiet Time (sec) = 2
Sensitivity (A/V) = 0.001
Comp R (ohm) = 5.2

Results:

Channel 1:

Potential/V, Current/A
0.893,   2.366e-4
0.896,   2.766e-4
0.899,   2.811e-4
0.902,   2.753e-4
0.905,   2.778e-4
0.908,   2.705e-4
0.911,   2.720e-4
0.914,   2.659e-4
0.917,   2.680e-4
0.920,   2.623e-4
0.923,   2.607e-4
0.926,   2.584e-4
0.929,   2.570e-4
0.932,   2.564e-4
0.935,   2.535e-4
0.938,   2.514e-4
0.941,   2.497e-4
0.944,   2.508e-4
0.947,   2.477e-4
0.950,   2.482e-4
0.953,   2.442e-4
0.956,   2.472e-4
0.959,   2.422e-4
0.962,   2.449e-4
0.965,   2.407e-4
0.968,   2.424e-4
0.971,   2.389e-4
0.974,   2.413e-4
0.977,   2.382e-4
0.980,   2.391e-4
0.983,   2.370e-4
0.986,   2.372e-4
0.989,   2.356e-4
0.992,   2.368e-4
0.995,   2.339e-4
0.998,   2.352e-4
1.001,   2.333e-4
1.004,   2.350e-4
1.007,   2.319e-4
1.010,   2.346e-4
1.013,   2.314e-4
1.016,   2.334e-4
1.019,   2.333e-4
1.022,   2.332e-4
1.025,   2.306e-4
1.028,   2.314e-4
1.031,   2.300e-4
1.034,   2.316e-4
1.037,   2.327e-4
1.040,   2.317e-4
1.043,   2.308e-4
1.046,   2.301e-4
1.049,   2.320e-4
1.052,   2.326e-4
1.055,   2.312e-4
1.058,   2.330e-4
1.061,   2.320e-4
1.064,   2.347e-4
1.067,   2.326e-4
1.070,   2.352e-4
1.073,   2.339e-4
1.076,   2.371e-4
1.079,   2.352e-4
1.082,   2.384e-4
1.085,   2.379e-4
1.088,   2.404e-4
1.091,   2.401e-4
1.094,   2.415e-4
1.097,   2.448e-4
1.100,   2.436e-4
1.103,   2.485e-4
1.106,   2.461e-4
1.109,   2.507e-4
1.112,   2.488e-4
1.115,   2.533e-4
1.118,   2.500e-4
1.121,   2.579e-4
1.124,   2.537e-4
1.127,   2.608e-4
1.130,   2.592e-4
1.133,   2.625e-4
1.136,   2.605e-4
1.139,   2.660e-4
1.142,   2.627e-4
1.145,   2.684e-4
1.148,   2.653e-4
1.151,   2.700e-4
1.154,   2.679e-4
1.157,   2.737e-4
1.160,   2.719e-4
1.163,   2.775e-4
1.166,   2.760e-4
1.169,   2.810e-4
1.172,   2.813e-4
1.175,   2.858e-4
1.178,   2.845e-4
1.181,   2.908e-4
1.184,   2.901e-4
1.187,   2.951e-4
1.190,   2.946e-4
1.193,   3.016e-4
1.196,   3.016e-4
1.199,   3.079e-4
1.202,   3.107e-4
1.205,   3.115e-4
1.208,   3.149e-4
1.211,   3.178e-4
1.214,   3.229e-4
1.217,   3.247e-4
1.220,   3.323e-4
1.223,   3.310e-4
1.226,   3.396e-4
1.229,   3.394e-4
1.232,   3.436e-4
1.235,   3.506e-4
1.238,   3.505e-4
1.241,   3.555e-4
1.244,   3.582e-4
1.247,   3.660e-4
1.250,   3.642e-4
1.253,   3.730e-4
1.256,   3.705e-4
1.259,   3.777e-4
1.262,   3.756e-4
1.265,   3.854e-4
1.268,   3.816e-4
1.271,   3.922e-4
1.274,   3.926e-4
1.277,   3.992e-4
1.280,   4.026e-4
1.283,   4.132e-4
1.286,   4.131e-4
1.289,   4.214e-4
1.292,   4.254e-4
1.295,   4.332e-4
1.298,   4.355e-4
1.301,   4.504e-4
1.304,   4.536e-4
1.307,   4.633e-4
1.310,   4.670e-4
1.313,   4.786e-4
1.316,   4.771e-4
1.319,   4.935e-4
1.322,   4.971e-4
1.325,   5.116e-4
1.328,   5.169e-4
1.331,   5.304e-4
1.334,   5.380e-4
1.337,   5.473e-4
1.340,   5.561e-4
1.343,   5.641e-4
1.346,   5.753e-4
1.349,   5.839e-4
1.352,   5.991e-4
1.355,   6.036e-4
1.358,   6.211e-4
1.361,   6.285e-4
1.364,   6.456e-4
1.367,   6.568e-4
1.370,   6.794e-4
1.373,   6.927e-4
1.376,   7.165e-4
1.379,   7.308e-4
1.382,   7.602e-4
1.385,   7.951e-4
1.388,   8.158e-4
1.391,   8.675e-4
1.394,   8.902e-4
1.397,   9.561e-4
1.400,   9.836e-4
1.403,   1.071e-3
1.406,   1.108e-3
1.409,   1.184e-3
1.412,   1.267e-3
1.415,   1.357e-3
1.418,   1.483e-3
1.421,   1.602e-3
1.424,   1.782e-3
1.427,   1.939e-3
1.430,   2.179e-3
1.433,   2.407e-3
1.436,   2.729e-3
1.439,   3.059e-3
1.442,   3.507e-3
1.445,   3.963e-3
1.448,   4.577e-3
1.451,   5.195e-3
1.454,   5.877e-3
1.457,   6.715e-3
1.460,   7.427e-3
1.463,   8.130e-3
1.466,   8.785e-3
1.469,   9.485e-3
1.472,   9.871e-3
1.475,   1.007e-2
1.478,   1.007e-2
1.481,   1.007e-2
1.484,   1.007e-2
1.487,   1.007e-2
1.490,   1.007e-2
1.493,   1.007e-2
1.494,   1.007e-2

File: B5_BEST_500_#1_High_Quality(#28)-188mV.txt
June 9, 2023   15:58:02
Linear Sweep Voltammetry
File: d:\current work\al_oer\electrochemical test data\batch 5\500\B5_BEST_500_#1_High_Quality(#28)-188mV.txt
Data Source:  Experiment
Instrument Model:  CHI660E
Header:
Note:

Init E (V) = 0.882

Final E (V) = 1.497

Scan Rate (V/s) = 0.010
Sample Interval (V) = 0.001
Quiet Time (sec) = 2
Sensitivity (A/V) = 0.001
Comp R (ohm) = 4.8

Results:

Channel 1:

Potential/V, Current/A
0.882,   2.539e-4
0.885,   3.113e-4
0.888,   3.168e-4
0.891,   3.259e-4
0.894,   3.274e-4
0.897,   3.151e-4
0.900,   3.048e-4
0.903,   2.924e-4
0.906,   3.023e-4
0.909,   3.131e-4
0.912,   3.123e-4
0.915,   3.023e-4
0.918,   2.842e-4
0.921,   2.819e-4
0.924,   2.857e-4
0.927,   2.951e-4
0.930,   3.039e-4
0.933,   2.841e-4
0.936,   2.786e-4
0.939,   2.695e-4
0.942,   2.791e-4
0.945,   2.900e-4
0.948,   2.890e-4
0.951,   2.798e-4
0.954,   2.629e-4
0.957,   2.652e-4
0.960,   2.710e-4
0.963,   2.815e-4
0.966,   2.821e-4
0.969,   2.676e-4
0.972,   2.609e-4
0.975,   2.561e-4
0.978,   2.686e-4
0.981,   2.788e-4
0.984,   2.758e-4
0.987,   2.646e-4
0.990,   2.482e-4
0.993,   2.558e-4
0.996,   2.618e-4
0.999,   2.713e-4
1.002,   2.730e-4
1.005,   2.589e-4
1.008,   2.577e-4
1.011,   2.525e-4
1.014,   2.633e-4
1.017,   2.717e-4
1.020,   2.647e-4
1.023,   2.581e-4
1.026,   2.465e-4
1.029,   2.541e-4
1.032,   2.638e-4
1.035,   2.721e-4
1.038,   2.690e-4
1.041,   2.542e-4
1.044,   2.496e-4
1.047,   2.547e-4
1.050,   2.668e-4
1.053,   2.733e-4
1.056,   2.697e-4
1.059,   2.547e-4
1.062,   2.479e-4
1.065,   2.595e-4
1.068,   2.714e-4
1.071,   2.785e-4
1.074,   2.679e-4
1.077,   2.557e-4
1.080,   2.572e-4
1.083,   2.645e-4
1.086,   2.727e-4
1.089,   2.824e-4
1.092,   2.726e-4
1.095,   2.612e-4
1.098,   2.596e-4
1.101,   2.694e-4
1.104,   2.854e-4
1.107,   2.874e-4
1.110,   2.767e-4
1.113,   2.630e-4
1.116,   2.694e-4
1.119,   2.801e-4
1.122,   2.942e-4
1.125,   2.979e-4
1.128,   2.817e-4
1.131,   2.769e-4
1.134,   2.744e-4
1.137,   2.922e-4
1.140,   3.066e-4
1.143,   3.029e-4
1.146,   2.904e-4
1.149,   2.769e-4
1.152,   2.900e-4
1.155,   3.057e-4
1.158,   3.120e-4
1.161,   3.120e-4
1.164,   2.894e-4
1.167,   2.951e-4
1.170,   3.012e-4
1.173,   3.157e-4
1.176,   3.359e-4
1.179,   3.158e-4
1.182,   3.087e-4
1.185,   2.971e-4
1.188,   3.087e-4
1.191,   3.437e-4
1.194,   3.341e-4
1.197,   3.325e-4
1.200,   3.132e-4
1.203,   3.174e-4
1.206,   3.330e-4
1.209,   3.466e-4
1.212,   3.675e-4
1.215,   3.377e-4
1.218,   3.337e-4
1.221,   3.302e-4
1.224,   3.541e-4
1.227,   3.831e-4
1.230,   3.654e-4
1.233,   3.678e-4
1.236,   3.425e-4
1.239,   3.585e-4
1.242,   3.847e-4
1.245,   3.888e-4
1.248,   4.103e-4
1.251,   3.666e-4
1.254,   3.785e-4
1.257,   3.755e-4
1.260,   3.873e-4
1.263,   4.353e-4
1.266,   4.005e-4
1.269,   4.126e-4
1.272,   3.794e-4
1.275,   4.045e-4
1.278,   4.393e-4
1.281,   4.242e-4
1.284,   4.592e-4
1.287,   3.978e-4
1.290,   4.177e-4
1.293,   4.306e-4
1.296,   4.454e-4
1.299,   4.979e-4
1.302,   4.396e-4
1.305,   4.616e-4
1.308,   4.262e-4
1.311,   4.372e-4
1.314,   5.141e-4
1.317,   4.692e-4
1.320,   5.168e-4
1.323,   4.457e-4
1.326,   4.788e-4
1.329,   5.071e-4
1.332,   4.979e-4
1.335,   5.730e-4
1.338,   4.790e-4
1.341,   5.382e-4
1.344,   5.058e-4
1.347,   5.379e-4
1.350,   6.191e-4
1.353,   5.500e-4
1.356,   6.256e-4
1.359,   5.465e-4
1.362,   6.115e-4
1.365,   6.563e-4
1.368,   6.466e-4
1.371,   7.877e-4
1.374,   6.267e-4
1.377,   7.562e-4
1.380,   7.550e-4
1.383,   7.865e-4
1.386,   9.776e-4
1.389,   8.240e-4
1.392,   1.043e-3
1.395,   9.159e-4
1.398,   1.066e-3
1.401,   1.265e-3
1.404,   1.148e-3
1.407,   1.636e-3
1.410,   1.320e-3
1.413,   1.699e-3
1.416,   1.897e-3
1.419,   1.954e-3
1.422,   2.806e-3
1.425,   2.450e-3
1.428,   3.302e-3
1.431,   3.440e-3
1.434,   4.001e-3
1.437,   5.009e-3
1.440,   5.411e-3
1.443,   6.534e-3
1.446,   7.240e-3
1.449,   7.932e-3
1.452,   8.962e-3
1.455,   9.340e-3
1.458,   9.830e-3
1.461,   1.004e-2
1.464,   1.007e-2
1.467,   1.007e-2
1.470,   1.007e-2
1.473,   1.007e-2
1.476,   1.007e-2
1.479,   1.007e-2
1.482,   1.007e-2
1.485,   1.007e-2
1.488,   1.007e-2
1.491,   1.007e-2
1.494,   1.007e-2
1.497,   1.007e-2