Folder: DASH/Experimental Records, Raw Data, and Supplementary Notes and Figures/batch5/final500

Note: README.md
# DASH
This is the online repository that stores code, data and supplementary figures of the research work: <Leveraging Data Mining, Active Learning, and Domain Adaptation in a Multi-Stage, Machine Learning-Driven Approach for the Efficient Discovery of Advanced Acidic Oxygen Evolution Electrocatalysts> by Rui Ding et. al. (https://arxiv.org/abs/2407.04877)
![Workflow Schematic](https://github.com/ruiding-uchicago/D.A.S.H./blob/main/Online%20Repository%20Figures/D.A.S.H.%20Workflow.jpg)
## Code Description

Our code is written and uploaded on GitHub in Jupyter notebook file format, which is already very easy to conduct and get results. Our code does not include providing a new python library, but users could track how we train machine learning models in Jupyter ipynb files. Also, we have provided all original dataset CSV files to drive the active learning flow. Additionally, we have detailed the python version and package environment used for this work, focusing on machine learning-related packages.

## Environment
This project was trained using Python version 3.9.12. Below is the list of machine learning-related packages and their versions used in this project on the local machine we used equipped with 2080 Ti GPU, users could install anaconda (https://www.anaconda.com/download) and using pip install to install the packages below for setting environment to run in the Jupyter notebook (https://docs.anaconda.com/ae-notebooks/user-guide/basic-tasks/apps/jupyter/index.html):

absl-py 1.2.0
ase 3.22.1
catboost 1.0.6
cython 0.29.28
dask 2022.2.1
deep-forest 0.1.7
gensim 4.1.2
h5py 3.6.0
keras 2.9.0
Keras-Preprocessing 1.1.2
keras-tcn 3.5.0
lightgbm 3.3.2
matplotlib 3.4.3
numpy 1.23.5
pandas 1.4.2
pytorch-lightning 2.0.1
pymatgen 2023.8.10
scikit-learn 1.0.2
scipy 1.8.0
scikit-opt  0.6.6
scikit-optimize 0.9.0
seaborn 0.11.2
tensorboard                  2.10.1
tensorboard-data-server      0.6.1
tensorboard-plugin-wit       1.8.1
tensorflow-estimator         2.10.0
tensorflow-gpu               2.10.0
tensorflow-io-gcs-filesystem 0.31.0
torch 2.0.0
torchvision 0.15.1
xgboost 1.6.2

File: B5_BEST_500_#1_Full(#2)-243mV.txt
June 9, 2023   11:31:35
Linear Sweep Voltammetry
File: d:\current work\al_oer\electrochemical test data\batch 5\500\B5_BEST_500_#1_Full(#2)-243mV.txt
Data Source:  Experiment
Instrument Model:  CHI660E
Header:
Note:

Init E (V) = 0.908

Final E (V) = 1.565

Scan Rate (V/s) = 0.010
Sample Interval (V) = 0.001
Quiet Time (sec) = 2
Sensitivity (A/V) = 0.001
Comp R (ohm) = 5.0

Results:

Channel 1:

Potential/V, Current/A
0.908,   5.400e-4
0.911,   5.625e-4
0.914,   5.516e-4
0.917,   5.400e-4
0.920,   5.284e-4
0.923,   5.150e-4
0.926,   5.040e-4
0.929,   4.932e-4
0.932,   4.843e-4
0.935,   4.750e-4
0.938,   4.671e-4
0.941,   4.593e-4
0.944,   4.527e-4
0.947,   4.447e-4
0.950,   4.371e-4
0.953,   4.308e-4
0.956,   4.245e-4
0.959,   4.164e-4
0.962,   4.112e-4
0.965,   4.056e-4
0.968,   4.006e-4
0.971,   3.965e-4
0.974,   3.916e-4
0.977,   3.888e-4
0.980,   3.870e-4
0.983,   3.840e-4
0.986,   3.817e-4
0.989,   3.783e-4
0.992,   3.766e-4
0.995,   3.738e-4
0.998,   3.705e-4
1.001,   3.677e-4
1.004,   3.659e-4
1.007,   3.631e-4
1.010,   3.612e-4
1.013,   3.593e-4
1.016,   3.571e-4
1.019,   3.556e-4
1.022,   3.539e-4
1.025,   3.534e-4
1.028,   3.545e-4
1.031,   3.537e-4
1.034,   3.530e-4
1.037,   3.536e-4
1.040,   3.540e-4
1.043,   3.531e-4
1.046,   3.532e-4
1.049,   3.532e-4
1.052,   3.530e-4
1.055,   3.531e-4
1.058,   3.533e-4
1.061,   3.525e-4
1.064,   3.528e-4
1.067,   3.544e-4
1.070,   3.550e-4
1.073,   3.562e-4
1.076,   3.583e-4
1.079,   3.607e-4
1.082,   3.631e-4
1.085,   3.651e-4
1.088,   3.675e-4
1.091,   3.702e-4
1.094,   3.719e-4
1.097,   3.728e-4
1.100,   3.748e-4
1.103,   3.752e-4
1.106,   3.767e-4
1.109,   3.798e-4
1.112,   3.815e-4
1.115,   3.848e-4
1.118,   3.891e-4
1.121,   3.938e-4
1.124,   3.990e-4
1.127,   4.031e-4
1.130,   4.087e-4
1.133,   4.125e-4
1.136,   4.154e-4
1.139,   4.189e-4
1.142,   4.216e-4
1.145,   4.239e-4
1.148,   4.273e-4
1.151,   4.304e-4
1.154,   4.337e-4
1.157,   4.385e-4
1.160,   4.430e-4
1.163,   4.485e-4
1.166,   4.541e-4
1.169,   4.604e-4
1.172,   4.661e-4
1.175,   4.727e-4
1.178,   4.773e-4
1.181,   4.827e-4
1.184,   4.879e-4
1.187,   4.898e-4
1.190,   4.953e-4
1.193,   4.985e-4
1.196,   5.037e-4
1.199,   5.079e-4
1.202,   5.118e-4
1.205,   5.178e-4
1.208,   5.239e-4
1.211,   5.314e-4
1.214,   5.404e-4
1.217,   5.508e-4
1.220,   5.580e-4
1.223,   5.658e-4
1.226,   5.751e-4
1.229,   5.789e-4
1.232,   5.843e-4
1.235,   5.891e-4
1.238,   5.952e-4
1.241,   6.009e-4
1.244,   6.060e-4
1.247,   6.122e-4
1.250,   6.168e-4
1.253,   6.254e-4
1.256,   6.369e-4
1.259,   6.488e-4
1.262,   6.620e-4
1.265,   6.714e-4
1.268,   6.837e-4
1.271,   6.953e-4
1.274,   7.056e-4
1.277,   7.120e-4
1.280,   7.209e-4
1.283,   7.304e-4
1.286,   7.365e-4
1.289,   7.430e-4
1.292,   7.510e-4
1.295,   7.594e-4
1.298,   7.677e-4
1.301,   7.831e-4
1.304,   7.967e-4
1.307,   8.132e-4
1.310,   8.339e-4
1.313,   8.495e-4
1.316,   8.699e-4
1.319,   8.829e-4
1.322,   8.971e-4
1.325,   9.088e-4
1.328,   9.228e-4
1.331,   9.355e-4
1.334,   9.478e-4
1.337,   9.580e-4
1.340,   9.771e-4
1.343,   9.816e-4
1.346,   9.973e-4
1.349,   1.014e-3
1.352,   1.034e-3
1.355,   1.061e-3
1.358,   1.083e-3
1.361,   1.107e-3
1.364,   1.129e-3
1.367,   1.152e-3
1.370,   1.164e-3
1.373,   1.177e-3
1.376,   1.190e-3
1.379,   1.203e-3
1.382,   1.217e-3
1.385,   1.222e-3
1.388,   1.233e-3
1.391,   1.234e-3
1.394,   1.253e-3
1.397,   1.270e-3
1.400,   1.291e-3
1.403,   1.321e-3
1.406,   1.342e-3
1.409,   1.375e-3
1.412,   1.399e-3
1.415,   1.414e-3
1.418,   1.431e-3
1.421,   1.443e-3
1.424,   1.451e-3
1.427,   1.472e-3
1.430,   1.483e-3
1.433,   1.486e-3
1.436,   1.493e-3
1.439,   1.504e-3
1.442,   1.513e-3
1.445,   1.533e-3
1.448,   1.573e-3
1.451,   1.618e-3
1.454,   1.675e-3
1.457,   1.727e-3
1.460,   1.779e-3
1.463,   1.810e-3
1.466,   1.859e-3
1.469,   1.921e-3
1.472,   1.973e-3
1.475,   2.038e-3
1.478,   2.139e-3
1.481,   2.236e-3
1.484,   2.340e-3
1.487,   2.380e-3
1.490,   2.518e-3
1.493,   2.667e-3
1.496,   2.848e-3
1.499,   3.050e-3
1.502,   3.314e-3
1.505,   3.599e-3
1.508,   3.888e-3
1.511,   4.200e-3
1.514,   4.530e-3
1.517,   4.806e-3
1.520,   5.191e-3
1.523,   5.582e-3
1.526,   5.991e-3
1.529,   6.425e-3
1.532,   6.847e-3
1.535,   7.295e-3
1.538,   7.885e-3
1.541,   8.652e-3
1.544,   8.957e-3
1.547,   9.445e-3
1.550,   9.777e-3
1.553,   1.001e-2
1.556,   1.007e-2
1.559,   1.007e-2
1.562,   1.007e-2
1.565,   1.007e-2

File: B5_BEST_500_#1_Full(#4)-193mV.txt
June 9, 2023   11:52:00
Linear Sweep Voltammetry
File: d:\current work\al_oer\electrochemical test data\batch 5\500\B5_BEST_500_#1_Full(#4)-193mV.txt
Data Source:  Experiment
Instrument Model:  CHI660E
Header:
Note:

Init E (V) = 0.897

Final E (V) = 1.502

Scan Rate (V/s) = 0.010
Sample Interval (V) = 0.001
Quiet Time (sec) = 2
Sensitivity (A/V) = 0.001
Comp R (ohm) = 4.0

Results:

Channel 1:

Potential/V, Current/A
0.897,   5.540e-4
0.900,   7.506e-4
0.903,   7.386e-4
0.906,   7.142e-4
0.909,   6.982e-4
0.912,   6.951e-4
0.915,   6.958e-4
0.918,   7.107e-4
0.921,   7.124e-4
0.924,   6.971e-4
0.927,   6.832e-4
0.930,   6.501e-4
0.933,   6.216e-4
0.936,   6.219e-4
0.939,   6.061e-4
0.942,   5.970e-4
0.945,   5.893e-4
0.948,   5.958e-4
0.951,   5.865e-4
0.954,   6.070e-4
0.957,   6.096e-4
0.960,   6.003e-4
0.963,   5.916e-4
0.966,   5.799e-4
0.969,   5.724e-4
0.972,   5.666e-4
0.975,   5.588e-4
0.978,   5.507e-4
0.981,   5.520e-4
0.984,   5.527e-4
0.987,   5.658e-4
0.990,   5.782e-4
0.993,   5.814e-4
0.996,   5.764e-4
0.999,   5.575e-4
1.002,   5.434e-4
1.005,   5.397e-4
1.008,   5.302e-4
1.011,   5.285e-4
1.014,   5.285e-4
1.017,   5.229e-4
1.020,   5.324e-4
1.023,   5.440e-4
1.026,   5.556e-4
1.029,   5.589e-4
1.032,   5.550e-4
1.035,   5.375e-4
1.038,   5.284e-4
1.041,   5.255e-4
1.044,   5.226e-4
1.047,   5.150e-4
1.050,   5.131e-4
1.053,   5.198e-4
1.056,   5.299e-4
1.059,   5.402e-4
1.062,   5.522e-4
1.065,   5.507e-4
1.068,   5.468e-4
1.071,   5.365e-4
1.074,   5.320e-4
1.077,   5.254e-4
1.080,   5.234e-4
1.083,   5.186e-4
1.086,   5.219e-4
1.089,   5.250e-4
1.092,   5.361e-4
1.095,   5.603e-4
1.098,   5.646e-4
1.101,   5.639e-4
1.104,   5.641e-4
1.107,   5.473e-4
1.110,   5.464e-4
1.113,   5.426e-4
1.116,   5.616e-4
1.119,   5.863e-4
1.122,   5.732e-4
1.125,   5.626e-4
1.128,   5.440e-4
1.131,   5.680e-4
1.134,   5.964e-4
1.137,   5.936e-4
1.140,   5.717e-4
1.143,   5.675e-4
1.146,   5.644e-4
1.149,   5.918e-4
1.152,   6.030e-4
1.155,   5.900e-4
1.158,   5.852e-4
1.161,   5.772e-4
1.164,   5.968e-4
1.167,   6.287e-4
1.170,   6.250e-4
1.173,   6.106e-4
1.176,   6.015e-4
1.179,   6.017e-4
1.182,   6.290e-4
1.185,   6.485e-4
1.188,   6.374e-4
1.191,   6.281e-4
1.194,   6.263e-4
1.197,   6.359e-4
1.200,   6.714e-4
1.203,   6.829e-4
1.206,   6.832e-4
1.209,   6.554e-4
1.212,   6.498e-4
1.215,   6.764e-4
1.218,   7.076e-4
1.221,   7.135e-4
1.224,   6.957e-4
1.227,   6.668e-4
1.230,   7.009e-4
1.233,   7.420e-4
1.236,   7.667e-4
1.239,   7.399e-4
1.242,   7.052e-4
1.245,   7.120e-4
1.248,   7.569e-4
1.251,   7.942e-4
1.254,   7.897e-4
1.257,   7.448e-4
1.260,   7.363e-4
1.263,   7.589e-4
1.266,   8.063e-4
1.269,   8.296e-4
1.272,   7.994e-4
1.275,   7.728e-4
1.278,   7.922e-4
1.281,   8.221e-4
1.284,   8.546e-4
1.287,   8.623e-4
1.290,   8.221e-4
1.293,   8.061e-4
1.296,   8.477e-4
1.299,   8.681e-4
1.302,   8.779e-4
1.305,   8.686e-4
1.308,   8.262e-4
1.311,   8.331e-4
1.314,   8.670e-4
1.317,   9.074e-4
1.320,   9.107e-4
1.323,   8.659e-4
1.326,   8.414e-4
1.329,   8.911e-4
1.332,   9.052e-4
1.335,   9.532e-4
1.338,   9.146e-4
1.341,   8.657e-4
1.344,   8.861e-4
1.347,   9.566e-4
1.350,   9.786e-4
1.353,   9.631e-4
1.356,   9.103e-4
1.359,   9.077e-4
1.362,   9.678e-4
1.365,   1.018e-3
1.368,   1.020e-3
1.371,   9.732e-4
1.374,   9.607e-4
1.377,   1.014e-3
1.380,   1.087e-3
1.383,   1.122e-3
1.386,   1.086e-3
1.389,   1.061e-3
1.392,   1.119e-3
1.395,   1.217e-3
1.398,   1.280e-3
1.401,   1.275e-3
1.404,   1.270e-3
1.407,   1.305e-3
1.410,   1.469e-3
1.413,   1.525e-3
1.416,   1.633e-3
1.419,   1.713e-3
1.422,   1.750e-3
1.425,   1.946e-3
1.428,   2.196e-3
1.431,   2.434e-3
1.434,   2.565e-3
1.437,   2.762e-3
1.440,   3.114e-3
1.443,   3.692e-3
1.446,   4.230e-3
1.449,   4.623e-3
1.452,   5.040e-3
1.455,   5.716e-3
1.458,   6.858e-3
1.461,   7.883e-3
1.464,   8.511e-3
1.467,   9.030e-3
1.470,   9.241e-3
1.473,   9.719e-3
1.476,   1.005e-2
1.479,   1.007e-2
1.482,   1.007e-2
1.485,   1.007e-2
1.488,   1.007e-2
1.491,   1.007e-2
1.494,   1.007e-2
1.497,   1.007e-2
1.500,   1.007e-2
1.502,   1.007e-2

File: B5_BEST_500_#1_Full(#5)-214mV.txt
June 8, 2023   21:33:34
Linear Sweep Voltammetry
File: d:\current work\al_oer\electrochemical test data\batch 5\500\B5_BEST_500_#1_Full(#5)-214mV.txt
Data Source:  Experiment
Instrument Model:  CHI660E
Header:
Note:

Init E (V) = 0.900

Final E (V) = 1.517

Scan Rate (V/s) = 0.010
Sample Interval (V) = 0.001
Quiet Time (sec) = 2
Sensitivity (A/V) = 0.001
Comp R (ohm) = 4.0

Results:

Channel 1:

Potential/V, Current/A
0.900,   1.292e-4
0.903,   2.092e-4
0.906,   2.052e-4
0.909,   2.096e-4
0.912,   2.185e-4
0.915,   2.157e-4
0.918,   2.065e-4
0.921,   2.129e-4
0.924,   2.196e-4
0.927,   2.162e-4
0.930,   2.097e-4
0.933,   2.186e-4
0.936,   2.189e-4
0.939,   2.132e-4
0.942,   2.113e-4
0.945,   2.215e-4
0.948,   2.283e-4
0.951,   2.196e-4
0.954,   2.127e-4
0.957,   2.261e-4
0.960,   2.328e-4
0.963,   2.202e-4
0.966,   2.186e-4
0.969,   2.322e-4
0.972,   2.333e-4
0.975,   2.236e-4
0.978,   2.237e-4
0.981,   2.305e-4
0.984,   2.376e-4
0.987,   2.264e-4
0.990,   2.235e-4
0.993,   2.427e-4
0.996,   2.410e-4
0.999,   2.289e-4
1.002,   2.311e-4
1.005,   2.439e-4
1.008,   2.461e-4
1.011,   2.340e-4
1.014,   2.326e-4
1.017,   2.484e-4
1.020,   2.459e-4
1.023,   2.303e-4
1.026,   2.354e-4
1.029,   2.560e-4
1.032,   2.479e-4
1.035,   2.351e-4
1.038,   2.422e-4
1.041,   2.552e-4
1.044,   2.510e-4
1.047,   2.390e-4
1.050,   2.443e-4
1.053,   2.607e-4
1.056,   2.526e-4
1.059,   2.417e-4
1.062,   2.479e-4
1.065,   2.647e-4
1.068,   2.599e-4
1.071,   2.460e-4
1.074,   2.524e-4
1.077,   2.677e-4
1.080,   2.603e-4
1.083,   2.475e-4
1.086,   2.588e-4
1.089,   2.713e-4
1.092,   2.651e-4
1.095,   2.531e-4
1.098,   2.667e-4
1.101,   2.745e-4
1.104,   2.665e-4
1.107,   2.584e-4
1.110,   2.719e-4
1.113,   2.817e-4
1.116,   2.716e-4
1.119,   2.627e-4
1.122,   2.821e-4
1.125,   2.860e-4
1.128,   2.712e-4
1.131,   2.685e-4
1.134,   2.871e-4
1.137,   2.956e-4
1.140,   2.755e-4
1.143,   2.754e-4
1.146,   2.963e-4
1.149,   2.964e-4
1.152,   2.847e-4
1.155,   2.888e-4
1.158,   3.054e-4
1.161,   2.998e-4
1.164,   2.965e-4
1.167,   3.001e-4
1.170,   3.114e-4
1.173,   3.040e-4
1.176,   2.974e-4
1.179,   3.063e-4
1.182,   3.216e-4
1.185,   3.156e-4
1.188,   3.102e-4
1.191,   3.160e-4
1.194,   3.359e-4
1.197,   3.310e-4
1.200,   3.069e-4
1.203,   3.262e-4
1.206,   3.486e-4
1.209,   3.359e-4
1.212,   3.168e-4
1.215,   3.344e-4
1.218,   3.603e-4
1.221,   3.452e-4
1.224,   3.255e-4
1.227,   3.489e-4
1.230,   3.640e-4
1.233,   3.486e-4
1.236,   3.419e-4
1.239,   3.682e-4
1.242,   3.815e-4
1.245,   3.646e-4
1.248,   3.511e-4
1.251,   3.837e-4
1.254,   3.970e-4
1.257,   3.731e-4
1.260,   3.627e-4
1.263,   3.968e-4
1.266,   4.043e-4
1.269,   3.842e-4
1.272,   3.618e-4
1.275,   4.005e-4
1.278,   4.278e-4
1.281,   4.008e-4
1.284,   3.755e-4
1.287,   4.181e-4
1.290,   4.529e-4
1.293,   4.141e-4
1.296,   3.729e-4
1.299,   4.364e-4
1.302,   4.590e-4
1.305,   4.114e-4
1.308,   3.862e-4
1.311,   4.517e-4
1.314,   4.757e-4
1.317,   4.173e-4
1.320,   3.970e-4
1.323,   4.717e-4
1.326,   4.755e-4
1.329,   4.166e-4
1.332,   4.245e-4
1.335,   4.923e-4
1.338,   4.960e-4
1.341,   4.389e-4
1.344,   4.326e-4
1.347,   5.030e-4
1.350,   5.129e-4
1.353,   4.471e-4
1.356,   4.602e-4
1.359,   5.366e-4
1.362,   5.352e-4
1.365,   4.573e-4
1.368,   4.870e-4
1.371,   5.630e-4
1.374,   5.583e-4
1.377,   4.835e-4
1.380,   5.113e-4
1.383,   6.083e-4
1.386,   6.019e-4
1.389,   5.135e-4
1.392,   5.449e-4
1.395,   6.548e-4
1.398,   6.589e-4
1.401,   5.634e-4
1.404,   6.105e-4
1.407,   7.358e-4
1.410,   7.607e-4
1.413,   6.540e-4
1.416,   7.148e-4
1.419,   9.047e-4
1.422,   9.325e-4
1.425,   8.121e-4
1.428,   9.472e-4
1.431,   1.224e-3
1.434,   1.302e-3
1.437,   1.192e-3
1.440,   1.433e-3
1.443,   1.825e-3
1.446,   2.040e-3
1.449,   2.085e-3
1.452,   2.498e-3
1.455,   3.187e-3
1.458,   3.646e-3
1.461,   3.784e-3
1.464,   4.776e-3
1.467,   6.024e-3
1.470,   6.533e-3
1.473,   7.176e-3
1.476,   8.391e-3
1.479,   9.761e-3
1.482,   1.007e-2
1.485,   1.007e-2
1.488,   1.007e-2
1.491,   1.007e-2
1.494,   1.007e-2
1.497,   1.007e-2
1.500,   1.007e-2
1.503,   1.007e-2
1.506,   1.007e-2
1.509,   1.007e-2
1.512,   1.007e-2
1.515,   1.007e-2
1.517,   1.007e-2

File: B5_BEST_500_#1_Full(#10)-216mV.txt
June 9, 2023   14:38:58
Linear Sweep Voltammetry
File: d:\current work\al_oer\electrochemical test data\batch 5\500\B5_BEST_500_#1_Full(#10)-216mV.txt
Data Source:  Experiment
Instrument Model:  CHI660E
Header:
Note:

Init E (V) = 0.897

Final E (V) = 1.497

Scan Rate (V/s) = 0.010
Sample Interval (V) = 0.001
Quiet Time (sec) = 2
Sensitivity (A/V) = 0.001
Comp R (ohm) = 4.3

Results:

Channel 1:

Potential/V, Current/A
0.897,   3.547e-4
0.900,   4.149e-4
0.903,   4.121e-4
0.906,   4.032e-4
0.909,   3.994e-4
0.912,   4.013e-4
0.915,   3.839e-4
0.918,   3.831e-4
0.921,   3.774e-4
0.924,   3.760e-4
0.927,   3.691e-4
0.930,   3.637e-4
0.933,   3.625e-4
0.936,   3.595e-4
0.939,   3.524e-4
0.942,   3.563e-4
0.945,   3.489e-4
0.948,   3.464e-4
0.951,   3.415e-4
0.954,   3.353e-4
0.957,   3.294e-4
0.960,   3.280e-4
0.963,   3.279e-4
0.966,   3.298e-4
0.969,   3.306e-4
0.972,   3.296e-4
0.975,   3.321e-4
0.978,   3.327e-4
0.981,   3.349e-4
0.984,   3.291e-4
0.987,   3.262e-4
0.990,   3.217e-4
0.993,   3.153e-4
0.996,   3.147e-4
0.999,   3.143e-4
1.002,   3.176e-4
1.005,   3.161e-4
1.008,   3.133e-4
1.011,   3.115e-4
1.014,   3.147e-4
1.017,   3.217e-4
1.020,   3.257e-4
1.023,   3.279e-4
1.026,   3.274e-4
1.029,   3.227e-4
1.032,   3.175e-4
1.035,   3.107e-4
1.038,   3.120e-4
1.041,   3.089e-4
1.044,   3.093e-4
1.047,   3.081e-4
1.050,   3.072e-4
1.053,   3.135e-4
1.056,   3.197e-4
1.059,   3.211e-4
1.062,   3.224e-4
1.065,   3.264e-4
1.068,   3.249e-4
1.071,   3.191e-4
1.074,   3.138e-4
1.077,   3.129e-4
1.080,   3.157e-4
1.083,   3.205e-4
1.086,   3.200e-4
1.089,   3.221e-4
1.092,   3.244e-4
1.095,   3.262e-4
1.098,   3.302e-4
1.101,   3.283e-4
1.104,   3.348e-4
1.107,   3.345e-4
1.110,   3.307e-4
1.113,   3.280e-4
1.116,   3.274e-4
1.119,   3.261e-4
1.122,   3.329e-4
1.125,   3.328e-4
1.128,   3.360e-4
1.131,   3.359e-4
1.134,   3.381e-4
1.137,   3.354e-4
1.140,   3.417e-4
1.143,   3.452e-4
1.146,   3.503e-4
1.149,   3.509e-4
1.152,   3.500e-4
1.155,   3.448e-4
1.158,   3.423e-4
1.161,   3.518e-4
1.164,   3.555e-4
1.167,   3.571e-4
1.170,   3.609e-4
1.173,   3.531e-4
1.176,   3.571e-4
1.179,   3.524e-4
1.182,   3.618e-4
1.185,   3.564e-4
1.188,   3.603e-4
1.191,   3.605e-4
1.194,   3.629e-4
1.197,   3.654e-4
1.200,   3.765e-4
1.203,   3.852e-4
1.206,   3.850e-4
1.209,   3.866e-4
1.212,   3.807e-4
1.215,   3.762e-4
1.218,   3.750e-4
1.221,   3.765e-4
1.224,   3.763e-4
1.227,   3.860e-4
1.230,   3.901e-4
1.233,   3.927e-4
1.236,   3.908e-4
1.239,   3.879e-4
1.242,   3.909e-4
1.245,   3.890e-4
1.248,   3.899e-4
1.251,   3.913e-4
1.254,   3.933e-4
1.257,   4.004e-4
1.260,   4.091e-4
1.263,   4.099e-4
1.266,   4.264e-4
1.269,   4.330e-4
1.272,   4.304e-4
1.275,   4.247e-4
1.278,   4.146e-4
1.281,   4.171e-4
1.284,   4.245e-4
1.287,   4.263e-4
1.290,   4.290e-4
1.293,   4.278e-4
1.296,   4.304e-4
1.299,   4.346e-4
1.302,   4.510e-4
1.305,   4.580e-4
1.308,   4.678e-4
1.311,   4.740e-4
1.314,   4.641e-4
1.317,   4.717e-4
1.320,   4.657e-4
1.323,   4.630e-4
1.326,   4.669e-4
1.329,   4.755e-4
1.332,   4.779e-4
1.335,   4.835e-4
1.338,   4.867e-4
1.341,   4.977e-4
1.344,   5.095e-4
1.347,   5.145e-4
1.350,   5.219e-4
1.353,   5.180e-4
1.356,   5.191e-4
1.359,   5.096e-4
1.362,   5.077e-4
1.365,   5.076e-4
1.368,   5.133e-4
1.371,   5.238e-4
1.374,   5.302e-4
1.377,   5.364e-4
1.380,   5.532e-4
1.383,   5.652e-4
1.386,   5.774e-4
1.389,   5.892e-4
1.392,   5.920e-4
1.395,   6.060e-4
1.398,   6.143e-4
1.401,   6.188e-4
1.404,   6.343e-4
1.407,   6.498e-4
1.410,   6.906e-4
1.413,   7.226e-4
1.416,   7.505e-4
1.419,   7.992e-4
1.422,   8.509e-4
1.425,   9.168e-4
1.428,   9.914e-4
1.431,   1.070e-3
1.434,   1.151e-3
1.437,   1.271e-3
1.440,   1.411e-3
1.443,   1.606e-3
1.446,   1.829e-3
1.449,   2.105e-3
1.452,   2.469e-3
1.455,   2.890e-3
1.458,   3.350e-3
1.461,   3.872e-3
1.464,   4.392e-3
1.467,   4.955e-3
1.470,   5.572e-3
1.473,   6.304e-3
1.476,   7.095e-3
1.479,   7.850e-3
1.482,   8.925e-3
1.485,   9.635e-3
1.488,   1.002e-2
1.491,   1.007e-2
1.494,   1.007e-2
1.497,   1.007e-2

File: B5_BEST_500_#1_High_Quality(#18)-209mV.txt
June 9, 2023   16:28:52
Linear Sweep Voltammetry
File: d:\current work\al_oer\electrochemical test data\batch 5\500\B5_BEST_500_#1_High_Quality(#18)-209mV.txt
Data Source:  Experiment
Instrument Model:  CHI660E
Header:
Note:

Init E (V) = 0.880

Final E (V) = 1.494

Scan Rate (V/s) = 0.010
Sample Interval (V) = 0.001
Quiet Time (sec) = 2
Sensitivity (A/V) = 0.001
Comp R (ohm) = 6.0

Results:

Channel 1:

Potential/V, Current/A
0.880,   4.222e-4
0.883,   4.499e-4
0.886,   4.470e-4
0.889,   4.413e-4
0.892,   4.342e-4
0.895,   4.271e-4
0.898,   4.196e-4
0.901,   4.128e-4
0.904,   4.062e-4
0.907,   4.003e-4
0.910,   3.936e-4
0.913,   3.875e-4
0.916,   3.813e-4
0.919,   3.758e-4
0.922,   3.709e-4
0.925,   3.654e-4
0.928,   3.612e-4
0.931,   3.567e-4
0.934,   3.525e-4
0.937,   3.483e-4
0.940,   3.442e-4
0.943,   3.401e-4
0.946,   3.351e-4
0.949,   3.327e-4
0.952,   3.308e-4
0.955,   3.282e-4
0.958,   3.251e-4
0.961,   3.228e-4
0.964,   3.204e-4
0.967,   3.182e-4
0.970,   3.166e-4
0.973,   3.150e-4
0.976,   3.147e-4
0.979,   3.125e-4
0.982,   3.109e-4
0.985,   3.095e-4
0.988,   3.080e-4
0.991,   3.072e-4
0.994,   3.048e-4
0.997,   3.046e-4
1.000,   3.034e-4
1.003,   3.024e-4
1.006,   3.009e-4
1.009,   3.002e-4
1.012,   2.986e-4
1.015,   2.983e-4
1.018,   2.969e-4
1.021,   2.970e-4
1.024,   2.952e-4
1.027,   2.951e-4
1.030,   2.939e-4
1.033,   2.922e-4
1.036,   2.928e-4
1.039,   2.924e-4
1.042,   2.921e-4
1.045,   2.919e-4
1.048,   2.918e-4
1.051,   2.926e-4
1.054,   2.923e-4
1.057,   2.929e-4
1.060,   2.934e-4
1.063,   2.936e-4
1.066,   2.943e-4
1.069,   2.949e-4
1.072,   2.955e-4
1.075,   2.961e-4
1.078,   2.969e-4
1.081,   2.983e-4
1.084,   2.985e-4
1.087,   2.996e-4
1.090,   3.002e-4
1.093,   3.014e-4
1.096,   3.020e-4
1.099,   3.025e-4
1.102,   3.035e-4
1.105,   3.045e-4
1.108,   3.046e-4
1.111,   3.055e-4
1.114,   3.061e-4
1.117,   3.064e-4
1.120,   3.073e-4
1.123,   3.075e-4
1.126,   3.094e-4
1.129,   3.100e-4
1.132,   3.110e-4
1.135,   3.118e-4
1.138,   3.130e-4
1.141,   3.145e-4
1.144,   3.175e-4
1.147,   3.177e-4
1.150,   3.193e-4
1.153,   3.206e-4
1.156,   3.201e-4
1.159,   3.224e-4
1.162,   3.248e-4
1.165,   3.265e-4
1.168,   3.281e-4
1.171,   3.294e-4
1.174,   3.320e-4
1.177,   3.335e-4
1.180,   3.339e-4
1.183,   3.357e-4
1.186,   3.363e-4
1.189,   3.378e-4
1.192,   3.394e-4
1.195,   3.414e-4
1.198,   3.424e-4
1.201,   3.448e-4
1.204,   3.457e-4
1.207,   3.486e-4
1.210,   3.518e-4
1.213,   3.555e-4
1.216,   3.576e-4
1.219,   3.592e-4
1.222,   3.612e-4
1.225,   3.638e-4
1.228,   3.672e-4
1.231,   3.702e-4
1.234,   3.727e-4
1.237,   3.758e-4
1.240,   3.791e-4
1.243,   3.814e-4
1.246,   3.846e-4
1.249,   3.878e-4
1.252,   3.903e-4
1.255,   3.935e-4
1.258,   3.967e-4
1.261,   3.992e-4
1.264,   4.019e-4
1.267,   4.033e-4
1.270,   4.061e-4
1.273,   4.079e-4
1.276,   4.102e-4
1.279,   4.119e-4
1.282,   4.149e-4
1.285,   4.172e-4
1.288,   4.193e-4
1.291,   4.220e-4
1.294,   4.244e-4
1.297,   4.272e-4
1.300,   4.291e-4
1.303,   4.315e-4
1.306,   4.331e-4
1.309,   4.363e-4
1.312,   4.396e-4
1.315,   4.421e-4
1.318,   4.454e-4
1.321,   4.478e-4
1.324,   4.526e-4
1.327,   4.561e-4
1.330,   4.613e-4
1.333,   4.651e-4
1.336,   4.702e-4
1.339,   4.742e-4
1.342,   4.774e-4
1.345,   4.828e-4
1.348,   4.864e-4
1.351,   4.857e-4
1.354,   4.868e-4
1.357,   4.826e-4
1.360,   4.897e-4
1.363,   5.261e-4
1.366,   5.315e-4
1.369,   4.886e-4
1.372,   5.581e-4
1.375,   5.202e-4
1.378,   5.690e-4
1.381,   5.929e-4
1.384,   6.201e-4
1.387,   6.422e-4
1.390,   6.674e-4
1.393,   6.845e-4
1.396,   7.007e-4
1.399,   6.987e-4
1.402,   7.215e-4
1.405,   7.687e-4
1.408,   7.542e-4
1.411,   8.081e-4
1.414,   8.900e-4
1.417,   8.596e-4
1.420,   1.106e-3
1.423,   1.096e-3
1.426,   1.167e-3
1.429,   1.313e-3
1.432,   1.487e-3
1.435,   1.662e-3
1.438,   1.878e-3
1.441,   2.113e-3
1.444,   2.443e-3
1.447,   2.763e-3
1.450,   3.085e-3
1.453,   3.316e-3
1.456,   3.886e-3
1.459,   4.404e-3
1.462,   5.081e-3
1.465,   5.812e-3
1.468,   6.599e-3
1.471,   7.524e-3
1.474,   8.578e-3
1.477,   9.499e-3
1.480,   9.973e-3
1.483,   1.007e-2
1.486,   1.007e-2
1.489,   1.007e-2
1.492,   1.007e-2
1.494,   1.007e-2