Folder: DASH/Experimental Records, Raw Data, and Supplementary Notes and Figures/batch5/final400

Note: README.md
# DASH
This is the online repository that stores code, data and supplementary figures of the research work: <Leveraging Data Mining, Active Learning, and Domain Adaptation in a Multi-Stage, Machine Learning-Driven Approach for the Efficient Discovery of Advanced Acidic Oxygen Evolution Electrocatalysts> by Rui Ding et. al. (https://arxiv.org/abs/2407.04877)
![Workflow Schematic](https://github.com/ruiding-uchicago/D.A.S.H./blob/main/Online%20Repository%20Figures/D.A.S.H.%20Workflow.jpg)
## Code Description

Our code is written and uploaded on GitHub in Jupyter notebook file format, which is already very easy to conduct and get results. Our code does not include providing a new python library, but users could track how we train machine learning models in Jupyter ipynb files. Also, we have provided all original dataset CSV files to drive the active learning flow. Additionally, we have detailed the python version and package environment used for this work, focusing on machine learning-related packages.

## Environment
This project was trained using Python version 3.9.12. Below is the list of machine learning-related packages and their versions used in this project on the local machine we used equipped with 2080 Ti GPU, users could install anaconda (https://www.anaconda.com/download) and using pip install to install the packages below for setting environment to run in the Jupyter notebook (https://docs.anaconda.com/ae-notebooks/user-guide/basic-tasks/apps/jupyter/index.html):

absl-py 1.2.0
ase 3.22.1
catboost 1.0.6
cython 0.29.28
dask 2022.2.1
deep-forest 0.1.7
gensim 4.1.2
h5py 3.6.0
keras 2.9.0
Keras-Preprocessing 1.1.2
keras-tcn 3.5.0
lightgbm 3.3.2
matplotlib 3.4.3
numpy 1.23.5
pandas 1.4.2
pytorch-lightning 2.0.1
pymatgen 2023.8.10
scikit-learn 1.0.2
scipy 1.8.0
scikit-opt  0.6.6
scikit-optimize 0.9.0
seaborn 0.11.2
tensorboard                  2.10.1
tensorboard-data-server      0.6.1
tensorboard-plugin-wit       1.8.1
tensorflow-estimator         2.10.0
tensorflow-gpu               2.10.0
tensorflow-io-gcs-filesystem 0.31.0
torch 2.0.0
torchvision 0.15.1
xgboost 1.6.2

File: B5_BEST_400_#1_Full(#1)-188mV.txt
May 30, 2023   20:20:40
Linear Sweep Voltammetry
File: d:\current work\al_oer\electrochemical test data\batch 5\400\B5_BEST_400_#1_Full(#1)-188mV.txt
Data Source:  Experiment
Instrument Model:  CHI660E
Header:
Note:

Init E (V) = 0.901

Final E (V) = 1.458

Scan Rate (V/s) = 0.010
Sample Interval (V) = 0.001
Quiet Time (sec) = 2
Sensitivity (A/V) = 0.001
Comp R (ohm) = 5.2

Results:

Channel 1:

Potential/V, Current/A
0.901,   5.346e-4
0.903,   5.350e-4
0.905,   4.950e-4
0.907,   4.751e-4
0.909,   4.406e-4
0.911,   4.152e-4
0.913,   4.081e-4
0.915,   3.867e-4
0.917,   3.679e-4
0.919,   3.687e-4
0.921,   3.574e-4
0.923,   3.391e-4
0.925,   3.386e-4
0.927,   3.356e-4
0.929,   3.179e-4
0.931,   3.167e-4
0.933,   3.196e-4
0.935,   3.074e-4
0.937,   2.993e-4
0.939,   3.072e-4
0.941,   2.992e-4
0.943,   2.875e-4
0.945,   2.927e-4
0.947,   2.926e-4
0.949,   2.814e-4
0.951,   2.827e-4
0.953,   2.853e-4
0.955,   2.762e-4
0.957,   2.737e-4
0.959,   2.794e-4
0.961,   2.727e-4
0.963,   2.662e-4
0.965,   2.762e-4
0.967,   2.681e-4
0.969,   2.619e-4
0.971,   2.706e-4
0.973,   2.688e-4
0.975,   2.579e-4
0.977,   2.630e-4
0.979,   2.686e-4
0.981,   2.580e-4
0.983,   2.581e-4
0.985,   2.639e-4
0.987,   2.625e-4
0.989,   2.560e-4
0.991,   2.576e-4
0.993,   2.584e-4
0.995,   2.541e-4
0.997,   2.603e-4
0.999,   2.589e-4
1.001,   2.507e-4
1.003,   2.567e-4
1.005,   2.580e-4
1.007,   2.516e-4
1.009,   2.493e-4
1.011,   2.551e-4
1.013,   2.505e-4
1.015,   2.495e-4
1.017,   2.565e-4
1.019,   2.515e-4
1.021,   2.491e-4
1.023,   2.539e-4
1.025,   2.525e-4
1.027,   2.455e-4
1.029,   2.484e-4
1.031,   2.506e-4
1.033,   2.483e-4
1.035,   2.477e-4
1.037,   2.548e-4
1.039,   2.495e-4
1.041,   2.479e-4
1.043,   2.556e-4
1.045,   2.475e-4
1.047,   2.462e-4
1.049,   2.533e-4
1.051,   2.518e-4
1.053,   2.480e-4
1.055,   2.512e-4
1.057,   2.538e-4
1.059,   2.495e-4
1.061,   2.502e-4
1.063,   2.557e-4
1.065,   2.535e-4
1.067,   2.486e-4
1.069,   2.545e-4
1.071,   2.519e-4
1.073,   2.477e-4
1.075,   2.532e-4
1.077,   2.553e-4
1.079,   2.490e-4
1.081,   2.554e-4
1.083,   2.568e-4
1.085,   2.503e-4
1.087,   2.536e-4
1.089,   2.575e-4
1.091,   2.545e-4
1.093,   2.529e-4
1.095,   2.631e-4
1.097,   2.573e-4
1.099,   2.546e-4
1.101,   2.665e-4
1.103,   2.597e-4
1.105,   2.545e-4
1.107,   2.669e-4
1.109,   2.651e-4
1.111,   2.597e-4
1.113,   2.591e-4
1.115,   2.710e-4
1.117,   2.591e-4
1.119,   2.629e-4
1.121,   2.703e-4
1.123,   2.643e-4
1.125,   2.636e-4
1.127,   2.735e-4
1.129,   2.676e-4
1.131,   2.666e-4
1.133,   2.751e-4
1.135,   2.692e-4
1.137,   2.681e-4
1.139,   2.745e-4
1.141,   2.747e-4
1.143,   2.723e-4
1.145,   2.734e-4
1.147,   2.808e-4
1.149,   2.769e-4
1.151,   2.743e-4
1.153,   2.841e-4
1.155,   2.808e-4
1.157,   2.770e-4
1.159,   2.862e-4
1.161,   2.874e-4
1.163,   2.809e-4
1.165,   2.834e-4
1.167,   2.862e-4
1.169,   2.850e-4
1.171,   2.861e-4
1.173,   2.934e-4
1.175,   2.912e-4
1.177,   2.828e-4
1.179,   2.936e-4
1.181,   2.964e-4
1.183,   2.877e-4
1.185,   2.957e-4
1.187,   3.052e-4
1.189,   2.929e-4
1.191,   2.942e-4
1.193,   3.061e-4
1.195,   2.994e-4
1.197,   2.971e-4
1.199,   3.099e-4
1.201,   3.078e-4
1.203,   3.008e-4
1.205,   3.071e-4
1.207,   3.170e-4
1.209,   3.052e-4
1.211,   3.121e-4
1.213,   3.171e-4
1.215,   3.134e-4
1.217,   3.095e-4
1.219,   3.268e-4
1.221,   3.205e-4
1.223,   3.110e-4
1.225,   3.267e-4
1.227,   3.260e-4
1.229,   3.196e-4
1.231,   3.316e-4
1.233,   3.328e-4
1.235,   3.267e-4
1.237,   3.329e-4
1.239,   3.390e-4
1.241,   3.312e-4
1.243,   3.336e-4
1.245,   3.467e-4
1.247,   3.422e-4
1.249,   3.371e-4
1.251,   3.465e-4
1.253,   3.497e-4
1.255,   3.464e-4
1.257,   3.493e-4
1.259,   3.580e-4
1.261,   3.538e-4
1.263,   3.497e-4
1.265,   3.622e-4
1.267,   3.622e-4
1.269,   3.617e-4
1.271,   3.698e-4
1.273,   3.625e-4
1.275,   3.707e-4
1.277,   3.725e-4
1.279,   3.685e-4
1.281,   3.725e-4
1.283,   3.765e-4
1.285,   3.820e-4
1.287,   3.769e-4
1.289,   3.840e-4
1.291,   3.916e-4
1.293,   3.857e-4
1.295,   3.900e-4
1.297,   3.977e-4
1.299,   3.948e-4
1.301,   3.987e-4
1.303,   4.039e-4
1.305,   4.057e-4
1.307,   4.022e-4
1.309,   4.107e-4
1.311,   4.121e-4
1.313,   4.131e-4
1.315,   4.165e-4
1.317,   4.256e-4
1.319,   4.216e-4
1.321,   4.232e-4
1.323,   4.367e-4
1.325,   4.364e-4
1.327,   4.406e-4
1.329,   4.437e-4
1.331,   4.492e-4
1.333,   4.571e-4
1.335,   4.477e-4
1.337,   4.553e-4
1.339,   4.718e-4
1.341,   4.736e-4
1.343,   4.776e-4
1.345,   4.831e-4
1.347,   4.919e-4
1.349,   4.982e-4
1.351,   4.990e-4
1.353,   5.121e-4
1.355,   5.243e-4
1.357,   5.234e-4
1.359,   5.443e-4
1.361,   5.528e-4
1.363,   5.549e-4
1.365,   5.669e-4
1.367,   5.945e-4
1.369,   6.013e-4
1.371,   6.088e-4
1.373,   6.384e-4
1.375,   6.498e-4
1.377,   6.649e-4
1.379,   7.012e-4
1.381,   7.048e-4
1.383,   7.394e-4
1.385,   7.658e-4
1.387,   7.847e-4
1.389,   8.179e-4
1.391,   8.587e-4
1.393,   8.833e-4
1.395,   9.284e-4
1.397,   9.561e-4
1.399,   1.005e-3
1.401,   1.064e-3
1.403,   1.111e-3
1.405,   1.185e-3
1.407,   1.267e-3
1.409,   1.325e-3
1.411,   1.446e-3
1.413,   1.529e-3
1.415,   1.679e-3
1.417,   1.802e-3
1.419,   1.933e-3
1.421,   2.117e-3
1.423,   2.315e-3
1.425,   2.511e-3
1.427,   2.816e-3
1.429,   3.083e-3
1.431,   3.372e-3
1.433,   3.763e-3
1.435,   4.191e-3
1.437,   4.676e-3
1.439,   5.098e-3
1.441,   5.644e-3
1.443,   6.235e-3
1.445,   6.894e-3
1.447,   7.631e-3
1.449,   8.449e-3
1.451,   9.191e-3
1.453,   9.825e-3
1.455,   1.007e-2
1.457,   1.007e-2
1.458,   1.007e-2

File: B5_BEST_400_#1_Full(#5)-303mV.txt
May 30, 2023   20:48:56
Linear Sweep Voltammetry
File: d:\current work\al_oer\electrochemical test data\batch 5\400\B5_BEST_400_#1_Full(#5)-303mV.txt
Data Source:  Experiment
Instrument Model:  CHI660E
Header:
Note:

Init E (V) = 0.905

Final E (V) = 1.704

Scan Rate (V/s) = 0.010
Sample Interval (V) = 0.001
Quiet Time (sec) = 2
Sensitivity (A/V) = 0.001
Comp R (ohm) = 6.2

Results:

Channel 1:
Ep = 1.673V
ip = 6.013e-3A
Ah = 7.052e-2C

Potential/V, Current/A
0.905,   4.838e-5
0.908,   4.573e-5
0.911,   4.272e-5
0.914,   4.016e-5
0.917,   3.788e-5
0.920,   3.598e-5
0.923,   3.434e-5
0.926,   3.280e-5
0.929,   3.145e-5
0.932,   3.025e-5
0.935,   2.915e-5
0.938,   2.813e-5
0.941,   2.726e-5
0.944,   2.646e-5
0.947,   2.567e-5
0.950,   2.501e-5
0.953,   2.435e-5
0.956,   2.372e-5
0.959,   2.320e-5
0.962,   2.269e-5
0.965,   2.221e-5
0.968,   2.175e-5
0.971,   2.135e-5
0.974,   2.094e-5
0.977,   2.058e-5
0.980,   2.028e-5
0.983,   1.992e-5
0.986,   1.960e-5
0.989,   1.931e-5
0.992,   1.901e-5
0.995,   1.878e-5
0.998,   1.854e-5
1.001,   1.831e-5
1.004,   1.806e-5
1.007,   1.786e-5
1.010,   1.765e-5
1.013,   1.747e-5
1.016,   1.731e-5
1.019,   1.712e-5
1.022,   1.698e-5
1.025,   1.681e-5
1.028,   1.668e-5
1.031,   1.655e-5
1.034,   1.646e-5
1.037,   1.630e-5
1.040,   1.619e-5
1.043,   1.607e-5
1.046,   1.602e-5
1.049,   1.591e-5
1.052,   1.581e-5
1.055,   1.575e-5
1.058,   1.568e-5
1.061,   1.560e-5
1.064,   1.554e-5
1.067,   1.546e-5
1.070,   1.542e-5
1.073,   1.537e-5
1.076,   1.529e-5
1.079,   1.527e-5
1.082,   1.526e-5
1.085,   1.522e-5
1.088,   1.518e-5
1.091,   1.514e-5
1.094,   1.513e-5
1.097,   1.515e-5
1.100,   1.513e-5
1.103,   1.516e-5
1.106,   1.513e-5
1.109,   1.512e-5
1.112,   1.513e-5
1.115,   1.515e-5
1.118,   1.515e-5
1.121,   1.515e-5
1.124,   1.516e-5
1.127,   1.516e-5
1.130,   1.515e-5
1.133,   1.522e-5
1.136,   1.524e-5
1.139,   1.528e-5
1.142,   1.536e-5
1.145,   1.534e-5
1.148,   1.535e-5
1.151,   1.543e-5
1.154,   1.548e-5
1.157,   1.549e-5
1.160,   1.557e-5
1.163,   1.559e-5
1.166,   1.563e-5
1.169,   1.561e-5
1.172,   1.576e-5
1.175,   1.579e-5
1.178,   1.577e-5
1.181,   1.587e-5
1.184,   1.600e-5
1.187,   1.605e-5
1.190,   1.611e-5
1.193,   1.614e-5
1.196,   1.622e-5
1.199,   1.629e-5
1.202,   1.636e-5
1.205,   1.642e-5
1.208,   1.650e-5
1.211,   1.658e-5
1.214,   1.667e-5
1.217,   1.674e-5
1.220,   1.683e-5
1.223,   1.688e-5
1.226,   1.700e-5
1.229,   1.701e-5
1.232,   1.718e-5
1.235,   1.726e-5
1.238,   1.740e-5
1.241,   1.741e-5
1.244,   1.757e-5
1.247,   1.760e-5
1.250,   1.776e-5
1.253,   1.782e-5
1.256,   1.797e-5
1.259,   1.814e-5
1.262,   1.820e-5
1.265,   1.829e-5
1.268,   1.840e-5
1.271,   1.856e-5
1.274,   1.861e-5
1.277,   1.878e-5
1.280,   1.886e-5
1.283,   1.899e-5
1.286,   1.920e-5
1.289,   1.933e-5
1.292,   1.950e-5
1.295,   1.959e-5
1.298,   1.980e-5
1.301,   1.993e-5
1.304,   2.010e-5
1.307,   2.028e-5
1.310,   2.042e-5
1.313,   2.060e-5
1.316,   2.079e-5
1.319,   2.096e-5
1.322,   2.116e-5
1.325,   2.138e-5
1.328,   2.155e-5
1.331,   2.183e-5
1.334,   2.204e-5
1.337,   2.229e-5
1.340,   2.253e-5
1.343,   2.287e-5
1.346,   2.314e-5
1.349,   2.344e-5
1.352,   2.365e-5
1.355,   2.410e-5
1.358,   2.442e-5
1.361,   2.478e-5
1.364,   2.523e-5
1.367,   2.563e-5
1.370,   2.608e-5
1.373,   2.651e-5
1.376,   2.700e-5
1.379,   2.766e-5
1.382,   2.824e-5
1.385,   2.882e-5
1.388,   2.957e-5
1.391,   3.028e-5
1.394,   3.112e-5
1.397,   3.203e-5
1.400,   3.316e-5
1.403,   3.422e-5
1.406,   3.565e-5
1.409,   3.713e-5
1.412,   3.882e-5
1.415,   4.103e-5
1.418,   4.340e-5
1.421,   4.622e-5
1.424,   4.954e-5
1.427,   5.344e-5
1.430,   5.800e-5
1.433,   6.359e-5
1.436,   7.012e-5
1.439,   7.795e-5
1.442,   8.696e-5
1.445,   9.777e-5
1.448,   1.103e-4
1.451,   1.250e-4
1.454,   1.422e-4
1.457,   1.620e-4
1.460,   1.850e-4
1.463,   2.108e-4
1.466,   2.405e-4
1.469,   2.737e-4
1.472,   3.108e-4
1.475,   3.514e-4
1.478,   3.959e-4
1.481,   4.433e-4
1.484,   4.934e-4
1.487,   5.455e-4
1.490,   6.018e-4
1.493,   6.605e-4
1.496,   7.218e-4
1.499,   7.870e-4
1.502,   8.559e-4
1.505,   9.329e-4
1.508,   1.013e-3
1.511,   1.101e-3
1.514,   1.196e-3
1.517,   1.295e-3
1.520,   1.397e-3
1.523,   1.507e-3
1.526,   1.619e-3
1.529,   1.742e-3
1.532,   1.867e-3
1.535,   1.994e-3
1.538,   2.127e-3
1.541,   2.258e-3
1.544,   2.392e-3
1.547,   2.530e-3
1.550,   2.668e-3
1.553,   2.799e-3
1.556,   2.940e-3
1.559,   3.083e-3
1.562,   3.222e-3
1.565,   3.363e-3
1.568,   3.481e-3
1.571,   3.618e-3
1.574,   3.738e-3
1.577,   3.881e-3
1.580,   4.020e-3
1.583,   4.126e-3
1.586,   4.240e-3
1.589,   4.368e-3
1.592,   4.475e-3
1.595,   4.609e-3
1.598,   4.718e-3
1.601,   4.793e-3
1.604,   4.917e-3
1.607,   5.033e-3
1.610,   5.113e-3
1.613,   5.234e-3
1.616,   5.320e-3
1.619,   5.402e-3
1.622,   5.491e-3
1.625,   5.563e-3
1.628,   5.696e-3
1.631,   5.734e-3
1.634,   5.777e-3
1.637,   5.888e-3
1.640,   5.936e-3
1.643,   6.021e-3
1.646,   6.082e-3
1.649,   6.162e-3
1.652,   6.273e-3
1.655,   6.276e-3
1.658,   6.275e-3
1.661,   6.277e-3
1.664,   6.251e-3
1.667,   6.233e-3
1.670,   6.227e-3
1.673,   6.212e-3
1.676,   6.221e-3
1.679,   6.281e-3
1.682,   6.211e-3
1.685,   6.165e-3
1.688,   6.129e-3
1.691,   6.245e-3
1.694,   6.181e-3
1.697,   6.102e-3
1.700,   6.034e-3
1.703,   5.989e-3
1.704,   6.008e-3

File: B5_BEST_400_#1_Full(#6)-198mV.txt
May 30, 2023   21:53:43
Linear Sweep Voltammetry
File: d:\current work\al_oer\electrochemical test data\batch 5\400\B5_BEST_400_#1_Full(#6)-198mV.txt
Data Source:  Experiment
Instrument Model:  CHI660E
Header:
Note:

Init E (V) = 0.900

Final E (V) = 1.475

Scan Rate (V/s) = 0.010
Sample Interval (V) = 0.001
Quiet Time (sec) = 2
Sensitivity (A/V) = 0.001
Comp R (ohm) = 4.4

Results:

Channel 1:

Potential/V, Current/A
0.900,   4.084e-4
0.902,   4.267e-4
0.904,   4.005e-4
0.906,   3.787e-4
0.908,   3.584e-4
0.910,   3.441e-4
0.912,   3.297e-4
0.914,   3.184e-4
0.916,   3.046e-4
0.918,   2.998e-4
0.920,   2.877e-4
0.922,   2.789e-4
0.924,   2.767e-4
0.926,   2.680e-4
0.928,   2.621e-4
0.930,   2.586e-4
0.932,   2.539e-4
0.934,   2.501e-4
0.936,   2.469e-4
0.938,   2.455e-4
0.940,   2.396e-4
0.942,   2.358e-4
0.944,   2.349e-4
0.946,   2.316e-4
0.948,   2.321e-4
0.950,   2.279e-4
0.952,   2.260e-4
0.954,   2.220e-4
0.956,   2.221e-4
0.958,   2.183e-4
0.960,   2.187e-4
0.962,   2.191e-4
0.964,   2.161e-4
0.966,   2.125e-4
0.968,   2.153e-4
0.970,   2.129e-4
0.972,   2.109e-4
0.974,   2.121e-4
0.976,   2.089e-4
0.978,   2.086e-4
0.980,   2.096e-4
0.982,   2.062e-4
0.984,   2.053e-4
0.986,   2.076e-4
0.988,   2.051e-4
0.990,   2.055e-4
0.992,   2.066e-4
0.994,   2.029e-4
0.996,   2.039e-4
0.998,   2.030e-4
1.000,   2.040e-4
1.002,   2.022e-4
1.004,   2.004e-4
1.006,   2.025e-4
1.008,   2.003e-4
1.010,   2.028e-4
1.012,   2.020e-4
1.014,   1.999e-4
1.016,   2.000e-4
1.018,   2.006e-4
1.020,   1.987e-4
1.022,   1.999e-4
1.024,   1.999e-4
1.026,   2.001e-4
1.028,   1.989e-4
1.030,   2.003e-4
1.032,   1.997e-4
1.034,   1.995e-4
1.036,   1.992e-4
1.038,   1.995e-4
1.040,   1.998e-4
1.042,   1.988e-4
1.044,   2.028e-4
1.046,   1.991e-4
1.048,   2.019e-4
1.050,   2.019e-4
1.052,   1.975e-4
1.054,   2.004e-4
1.056,   2.014e-4
1.058,   1.992e-4
1.060,   1.991e-4
1.062,   2.020e-4
1.064,   2.003e-4
1.066,   2.004e-4
1.068,   2.025e-4
1.070,   2.030e-4
1.072,   2.012e-4
1.074,   2.056e-4
1.076,   2.032e-4
1.078,   2.036e-4
1.080,   2.043e-4
1.082,   2.039e-4
1.084,   2.043e-4
1.086,   2.041e-4
1.088,   2.070e-4
1.090,   2.057e-4
1.092,   2.064e-4
1.094,   2.104e-4
1.096,   2.059e-4
1.098,   2.062e-4
1.100,   2.096e-4
1.102,   2.091e-4
1.104,   2.091e-4
1.106,   2.105e-4
1.108,   2.100e-4
1.110,   2.098e-4
1.112,   2.112e-4
1.114,   2.135e-4
1.116,   2.137e-4
1.118,   2.163e-4
1.120,   2.164e-4
1.122,   2.156e-4
1.124,   2.156e-4
1.126,   2.171e-4
1.128,   2.175e-4
1.130,   2.184e-4
1.132,   2.188e-4
1.134,   2.197e-4
1.136,   2.231e-4
1.138,   2.212e-4
1.140,   2.207e-4
1.142,   2.233e-4
1.144,   2.259e-4
1.146,   2.239e-4
1.148,   2.239e-4
1.150,   2.266e-4
1.152,   2.263e-4
1.154,   2.276e-4
1.156,   2.295e-4
1.158,   2.278e-4
1.160,   2.301e-4
1.162,   2.321e-4
1.164,   2.326e-4
1.166,   2.330e-4
1.168,   2.351e-4
1.170,   2.348e-4
1.172,   2.354e-4
1.174,   2.374e-4
1.176,   2.386e-4
1.178,   2.396e-4
1.180,   2.397e-4
1.182,   2.410e-4
1.184,   2.402e-4
1.186,   2.438e-4
1.188,   2.464e-4
1.190,   2.433e-4
1.192,   2.455e-4
1.194,   2.521e-4
1.196,   2.492e-4
1.198,   2.491e-4
1.200,   2.523e-4
1.202,   2.520e-4
1.204,   2.546e-4
1.206,   2.564e-4
1.208,   2.546e-4
1.210,   2.567e-4
1.212,   2.587e-4
1.214,   2.590e-4
1.216,   2.609e-4
1.218,   2.634e-4
1.220,   2.642e-4
1.222,   2.624e-4
1.224,   2.664e-4
1.226,   2.676e-4
1.228,   2.659e-4
1.230,   2.680e-4
1.232,   2.714e-4
1.234,   2.712e-4
1.236,   2.740e-4
1.238,   2.776e-4
1.240,   2.713e-4
1.242,   2.781e-4
1.244,   2.821e-4
1.246,   2.765e-4
1.248,   2.811e-4
1.250,   2.840e-4
1.252,   2.831e-4
1.254,   2.823e-4
1.256,   2.880e-4
1.258,   2.874e-4
1.260,   2.876e-4
1.262,   2.936e-4
1.264,   2.956e-4
1.266,   2.898e-4
1.268,   2.957e-4
1.270,   2.970e-4
1.272,   2.945e-4
1.274,   3.015e-4
1.276,   3.009e-4
1.278,   3.027e-4
1.280,   3.044e-4
1.282,   3.079e-4
1.284,   3.041e-4
1.286,   3.076e-4
1.288,   3.133e-4
1.290,   3.087e-4
1.292,   3.142e-4
1.294,   3.164e-4
1.296,   3.139e-4
1.298,   3.180e-4
1.300,   3.203e-4
1.302,   3.203e-4
1.304,   3.222e-4
1.306,   3.283e-4
1.308,   3.273e-4
1.310,   3.289e-4
1.312,   3.321e-4
1.314,   3.340e-4
1.316,   3.336e-4
1.318,   3.380e-4
1.320,   3.413e-4
1.322,   3.455e-4
1.324,   3.451e-4
1.326,   3.494e-4
1.328,   3.519e-4
1.330,   3.514e-4
1.332,   3.613e-4
1.334,   3.591e-4
1.336,   3.602e-4
1.338,   3.675e-4
1.340,   3.684e-4
1.342,   3.724e-4
1.344,   3.797e-4
1.346,   3.840e-4
1.348,   3.846e-4
1.350,   3.923e-4
1.352,   3.915e-4
1.354,   3.985e-4
1.356,   4.065e-4
1.358,   4.055e-4
1.360,   4.104e-4
1.362,   4.242e-4
1.364,   4.250e-4
1.366,   4.340e-4
1.368,   4.396e-4
1.370,   4.491e-4
1.372,   4.528e-4
1.374,   4.618e-4
1.376,   4.770e-4
1.378,   4.789e-4
1.380,   4.969e-4
1.382,   5.096e-4
1.384,   5.211e-4
1.386,   5.309e-4
1.388,   5.545e-4
1.390,   5.720e-4
1.392,   5.861e-4
1.394,   6.148e-4
1.396,   6.388e-4
1.398,   6.618e-4
1.400,   6.989e-4
1.402,   7.308e-4
1.404,   7.710e-4
1.406,   8.177e-4
1.408,   8.693e-4
1.410,   9.144e-4
1.412,   9.848e-4
1.414,   1.060e-3
1.416,   1.134e-3
1.418,   1.228e-3
1.420,   1.338e-3
1.422,   1.446e-3
1.424,   1.577e-3
1.426,   1.728e-3
1.428,   1.879e-3
1.430,   2.064e-3
1.432,   2.265e-3
1.434,   2.478e-3
1.436,   2.712e-3
1.438,   2.983e-3
1.440,   3.278e-3
1.442,   3.552e-3
1.444,   3.880e-3
1.446,   4.255e-3
1.448,   4.602e-3
1.450,   5.054e-3
1.452,   5.479e-3
1.454,   5.879e-3
1.456,   6.340e-3
1.458,   6.883e-3
1.460,   7.424e-3
1.462,   7.981e-3
1.464,   8.601e-3
1.466,   9.144e-3
1.468,   9.521e-3
1.470,   9.912e-3
1.472,   1.005e-2
1.474,   1.007e-2
1.475,   1.007e-2

File: B5_BEST_400_#1_Full(#8)-212mV.txt
May 31, 2023   14:45:34
Linear Sweep Voltammetry
File: d:\current work\al_oer\electrochemical test data\batch 5\400\B5_BEST_400_#1_Full(#8)-212mV.txt
Data Source:  Experiment
Instrument Model:  CHI660E
Header:
Note:

Init E (V) = 0.899

Final E (V) = 1.502

Scan Rate (V/s) = 0.010
Sample Interval (V) = 0.001
Quiet Time (sec) = 2
Sensitivity (A/V) = 0.001
Comp R (ohm) = 6.2

Results:

Channel 1:

Potential/V, Current/A
0.899,   3.171e-4
0.902,   3.568e-4
0.905,   3.560e-4
0.908,   3.490e-4
0.911,   3.432e-4
0.914,   3.369e-4
0.917,   3.327e-4
0.920,   3.244e-4
0.923,   3.189e-4
0.926,   3.155e-4
0.929,   3.104e-4
0.932,   3.052e-4
0.935,   3.000e-4
0.938,   2.971e-4
0.941,   2.934e-4
0.944,   2.893e-4
0.947,   2.872e-4
0.950,   2.840e-4
0.953,   2.818e-4
0.956,   2.786e-4
0.959,   2.743e-4
0.962,   2.734e-4
0.965,   2.735e-4
0.968,   2.699e-4
0.971,   2.682e-4
0.974,   2.680e-4
0.977,   2.661e-4
0.980,   2.633e-4
0.983,   2.604e-4
0.986,   2.610e-4
0.989,   2.612e-4
0.992,   2.592e-4
0.995,   2.584e-4
0.998,   2.574e-4
1.001,   2.588e-4
1.004,   2.551e-4
1.007,   2.544e-4
1.010,   2.546e-4
1.013,   2.556e-4
1.016,   2.543e-4
1.019,   2.555e-4
1.022,   2.530e-4
1.025,   2.539e-4
1.028,   2.547e-4
1.031,   2.529e-4
1.034,   2.546e-4
1.037,   2.540e-4
1.040,   2.537e-4
1.043,   2.546e-4
1.046,   2.530e-4
1.049,   2.551e-4
1.052,   2.553e-4
1.055,   2.541e-4
1.058,   2.553e-4
1.061,   2.574e-4
1.064,   2.569e-4
1.067,   2.581e-4
1.070,   2.568e-4
1.073,   2.585e-4
1.076,   2.605e-4
1.079,   2.615e-4
1.082,   2.609e-4
1.085,   2.612e-4
1.088,   2.640e-4
1.091,   2.649e-4
1.094,   2.629e-4
1.097,   2.668e-4
1.100,   2.685e-4
1.103,   2.675e-4
1.106,   2.684e-4
1.109,   2.698e-4
1.112,   2.703e-4
1.115,   2.735e-4
1.118,   2.725e-4
1.121,   2.751e-4
1.124,   2.780e-4
1.127,   2.775e-4
1.130,   2.802e-4
1.133,   2.794e-4
1.136,   2.827e-4
1.139,   2.844e-4
1.142,   2.818e-4
1.145,   2.872e-4
1.148,   2.881e-4
1.151,   2.895e-4
1.154,   2.919e-4
1.157,   2.904e-4
1.160,   2.946e-4
1.163,   2.971e-4
1.166,   2.957e-4
1.169,   2.981e-4
1.172,   2.996e-4
1.175,   3.001e-4
1.178,   3.023e-4
1.181,   3.004e-4
1.184,   3.034e-4
1.187,   3.104e-4
1.190,   3.081e-4
1.193,   3.077e-4
1.196,   3.126e-4
1.199,   3.109e-4
1.202,   3.184e-4
1.205,   3.118e-4
1.208,   3.165e-4
1.211,   3.213e-4
1.214,   3.165e-4
1.217,   3.215e-4
1.220,   3.241e-4
1.223,   3.243e-4
1.226,   3.289e-4
1.229,   3.232e-4
1.232,   3.293e-4
1.235,   3.350e-4
1.238,   3.310e-4
1.241,   3.315e-4
1.244,   3.346e-4
1.247,   3.335e-4
1.250,   3.416e-4
1.253,   3.358e-4
1.256,   3.400e-4
1.259,   3.438e-4
1.262,   3.451e-4
1.265,   3.452e-4
1.268,   3.461e-4
1.271,   3.460e-4
1.274,   3.507e-4
1.277,   3.499e-4
1.280,   3.514e-4
1.283,   3.560e-4
1.286,   3.563e-4
1.289,   3.588e-4
1.292,   3.584e-4
1.295,   3.588e-4
1.298,   3.670e-4
1.301,   3.617e-4
1.304,   3.659e-4
1.307,   3.689e-4
1.310,   3.696e-4
1.313,   3.740e-4
1.316,   3.698e-4
1.319,   3.749e-4
1.322,   3.815e-4
1.325,   3.820e-4
1.328,   3.825e-4
1.331,   3.877e-4
1.334,   3.903e-4
1.337,   3.921e-4
1.340,   3.970e-4
1.343,   3.960e-4
1.346,   4.022e-4
1.349,   4.087e-4
1.352,   4.096e-4
1.355,   4.133e-4
1.358,   4.148e-4
1.361,   4.247e-4
1.364,   4.285e-4
1.367,   4.324e-4
1.370,   4.433e-4
1.373,   4.495e-4
1.376,   4.545e-4
1.379,   4.581e-4
1.382,   4.688e-4
1.385,   4.843e-4
1.388,   4.952e-4
1.391,   5.048e-4
1.394,   5.227e-4
1.397,   5.366e-4
1.400,   5.564e-4
1.403,   5.733e-4
1.406,   6.065e-4
1.409,   6.473e-4
1.412,   6.782e-4
1.415,   7.277e-4
1.418,   7.862e-4
1.421,   8.692e-4
1.424,   9.441e-4
1.427,   1.035e-3
1.430,   1.169e-3
1.433,   1.318e-3
1.436,   1.488e-3
1.439,   1.673e-3
1.442,   1.919e-3
1.445,   2.194e-3
1.448,   2.480e-3
1.451,   2.816e-3
1.454,   3.253e-3
1.457,   3.693e-3
1.460,   4.109e-3
1.463,   4.600e-3
1.466,   5.216e-3
1.469,   5.846e-3
1.472,   6.531e-3
1.475,   7.139e-3
1.478,   7.833e-3
1.481,   8.638e-3
1.484,   9.111e-3
1.487,   9.595e-3
1.490,   9.881e-3
1.493,   1.003e-2
1.496,   7.221e-3
1.499,   4.864e-3
1.502,   4.766e-3