Folder: DASH/Experimental Records, Raw Data, and Supplementary Notes and Figures/batch5/final400 (part 3)

File: B5_BEST_400_#1_High_Quality(#23)-154mV.txt
May 31, 2023   14:25:50
Linear Sweep Voltammetry
File: d:\current work\al_oer\electrochemical test data\batch 5\400\B5_BEST_400_#1_High_Quality(#23)-154mV.txt
Data Source:  Experiment
Instrument Model:  CHI660E
Header:
Note:

Init E (V) = 0.890

Final E (V) = 1.459

Scan Rate (V/s) = 0.010
Sample Interval (V) = 0.001
Quiet Time (sec) = 2
Sensitivity (A/V) = 0.001
Comp R (ohm) = 5.2

Results:

Channel 1:

Potential/V, Current/A
0.890,   5.893e-4
0.892,   7.997e-4
0.894,   7.663e-4
0.896,   7.893e-4
0.898,   7.645e-4
0.900,   7.688e-4
0.902,   7.523e-4
0.904,   7.230e-4
0.906,   7.621e-4
0.908,   7.178e-4
0.910,   7.242e-4
0.912,   7.229e-4
0.914,   6.982e-4
0.916,   7.114e-4
0.918,   6.932e-4
0.920,   6.934e-4
0.922,   6.919e-4
0.924,   6.734e-4
0.926,   6.907e-4
0.928,   6.707e-4
0.930,   6.686e-4
0.932,   6.700e-4
0.934,   6.463e-4
0.936,   6.730e-4
0.938,   6.664e-4
0.940,   6.455e-4
0.942,   6.480e-4
0.944,   6.392e-4
0.946,   6.525e-4
0.948,   6.401e-4
0.950,   6.361e-4
0.952,   6.362e-4
0.954,   6.200e-4
0.956,   6.494e-4
0.958,   6.304e-4
0.960,   6.166e-4
0.962,   6.365e-4
0.964,   6.104e-4
0.966,   6.383e-4
0.968,   6.227e-4
0.970,   6.102e-4
0.972,   6.231e-4
0.974,   6.126e-4
0.976,   6.273e-4
0.978,   6.112e-4
0.980,   5.978e-4
0.982,   6.195e-4
0.984,   6.076e-4
0.986,   6.123e-4
0.988,   6.114e-4
0.990,   5.915e-4
0.992,   6.163e-4
0.994,   6.012e-4
0.996,   6.039e-4
0.998,   6.061e-4
1.000,   5.914e-4
1.002,   6.197e-4
1.004,   5.984e-4
1.006,   6.035e-4
1.008,   6.049e-4
1.010,   5.875e-4
1.012,   6.114e-4
1.014,   5.997e-4
1.016,   5.985e-4
1.018,   6.041e-4
1.020,   5.884e-4
1.022,   6.103e-4
1.024,   5.920e-4
1.026,   5.915e-4
1.028,   6.027e-4
1.030,   5.811e-4
1.032,   6.116e-4
1.034,   5.978e-4
1.036,   5.968e-4
1.038,   6.053e-4
1.040,   5.885e-4
1.042,   6.124e-4
1.044,   5.934e-4
1.046,   6.033e-4
1.048,   6.051e-4
1.050,   5.823e-4
1.052,   6.198e-4
1.054,   5.957e-4
1.056,   5.939e-4
1.058,   6.100e-4
1.060,   5.929e-4
1.062,   6.139e-4
1.064,   6.066e-4
1.066,   6.037e-4
1.068,   6.151e-4
1.070,   5.995e-4
1.072,   6.218e-4
1.074,   6.123e-4
1.076,   6.111e-4
1.078,   6.162e-4
1.080,   6.084e-4
1.082,   6.271e-4
1.084,   6.211e-4
1.086,   6.103e-4
1.088,   6.260e-4
1.090,   6.243e-4
1.092,   6.341e-4
1.094,   6.335e-4
1.096,   6.149e-4
1.098,   6.485e-4
1.100,   6.264e-4
1.102,   6.424e-4
1.104,   6.307e-4
1.106,   6.273e-4
1.108,   6.552e-4
1.110,   6.373e-4
1.112,   6.547e-4
1.114,   6.435e-4
1.116,   6.411e-4
1.118,   6.616e-4
1.120,   6.567e-4
1.122,   6.608e-4
1.124,   6.565e-4
1.126,   6.529e-4
1.128,   6.838e-4
1.130,   6.685e-4
1.132,   6.716e-4
1.134,   6.734e-4
1.136,   6.665e-4
1.138,   6.924e-4
1.140,   6.853e-4
1.142,   6.812e-4
1.144,   6.924e-4
1.146,   6.863e-4
1.148,   6.988e-4
1.150,   7.034e-4
1.152,   6.967e-4
1.154,   7.091e-4
1.156,   7.024e-4
1.158,   7.232e-4
1.160,   7.200e-4
1.162,   7.182e-4
1.164,   7.347e-4
1.166,   7.099e-4
1.168,   7.435e-4
1.170,   7.309e-4
1.172,   7.381e-4
1.174,   7.410e-4
1.176,   7.281e-4
1.178,   7.600e-4
1.180,   7.521e-4
1.182,   7.465e-4
1.184,   7.634e-4
1.186,   7.577e-4
1.188,   7.661e-4
1.190,   7.702e-4
1.192,   7.672e-4
1.194,   7.841e-4
1.196,   7.812e-4
1.198,   7.876e-4
1.200,   8.010e-4
1.202,   7.792e-4
1.204,   8.133e-4
1.206,   7.993e-4
1.208,   8.231e-4
1.210,   8.152e-4
1.212,   7.964e-4
1.214,   8.200e-4
1.216,   8.336e-4
1.218,   8.254e-4
1.220,   8.346e-4
1.222,   8.268e-4
1.224,   8.416e-4
1.226,   8.564e-4
1.228,   8.560e-4
1.230,   8.477e-4
1.232,   8.483e-4
1.234,   8.808e-4
1.236,   8.821e-4
1.238,   8.714e-4
1.240,   8.783e-4
1.242,   8.733e-4
1.244,   9.093e-4
1.246,   8.977e-4
1.248,   9.049e-4
1.250,   9.023e-4
1.252,   9.077e-4
1.254,   9.330e-4
1.256,   9.221e-4
1.258,   9.280e-4
1.260,   9.387e-4
1.262,   9.293e-4
1.264,   9.667e-4
1.266,   9.474e-4
1.268,   9.530e-4
1.270,   9.633e-4
1.272,   9.490e-4
1.274,   1.003e-3
1.276,   9.778e-4
1.278,   9.792e-4
1.280,   1.003e-3
1.282,   9.887e-4
1.284,   1.023e-3
1.286,   1.014e-3
1.288,   1.019e-3
1.290,   1.032e-3
1.292,   1.019e-3
1.294,   1.059e-3
1.296,   1.050e-3
1.298,   1.043e-3
1.300,   1.079e-3
1.302,   1.064e-3
1.304,   1.102e-3
1.306,   1.076e-3
1.308,   1.087e-3
1.310,   1.134e-3
1.312,   1.099e-3
1.314,   1.133e-3
1.316,   1.134e-3
1.318,   1.133e-3
1.320,   1.170e-3
1.322,   1.156e-3
1.324,   1.182e-3
1.326,   1.180e-3
1.328,   1.172e-3
1.330,   1.228e-3
1.332,   1.220e-3
1.334,   1.239e-3
1.336,   1.243e-3
1.338,   1.246e-3
1.340,   1.289e-3
1.342,   1.265e-3
1.344,   1.310e-3
1.346,   1.323e-3
1.348,   1.329e-3
1.350,   1.372e-3
1.352,   1.358e-3
1.354,   1.401e-3
1.356,   1.426e-3
1.358,   1.413e-3
1.360,   1.483e-3
1.362,   1.501e-3
1.364,   1.489e-3
1.366,   1.550e-3
1.368,   1.550e-3
1.370,   1.628e-3
1.372,   1.653e-3
1.374,   1.670e-3
1.376,   1.744e-3
1.378,   1.752e-3
1.380,   1.845e-3
1.382,   1.886e-3
1.384,   1.908e-3
1.386,   2.026e-3
1.388,   2.032e-3
1.390,   2.155e-3
1.392,   2.235e-3
1.394,   2.277e-3
1.396,   2.453e-3
1.398,   2.463e-3
1.400,   2.646e-3
1.402,   2.808e-3
1.404,   2.833e-3
1.406,   3.130e-3
1.408,   3.240e-3
1.410,   3.483e-3
1.412,   3.701e-3
1.414,   3.846e-3
1.416,   4.259e-3
1.418,   4.444e-3
1.420,   4.866e-3
1.422,   5.247e-3
1.424,   5.487e-3
1.426,   6.144e-3
1.428,   6.469e-3
1.430,   7.021e-3
1.432,   7.567e-3
1.434,   7.873e-3
1.436,   8.897e-3
1.438,   9.060e-3
1.440,   9.524e-3
1.442,   9.795e-3
1.444,   9.901e-3
1.446,   1.007e-2
1.448,   1.007e-2
1.450,   1.007e-2
1.452,   1.007e-2
1.454,   1.007e-2
1.456,   1.007e-2
1.458,   1.007e-2
1.459,   1.007e-2

File: B5_BEST_400_#1_High_Quality(#26)-227mV.txt
May 31, 2023   13:13:50
Linear Sweep Voltammetry
File: d:\current work\al_oer\electrochemical test data\batch 5\400\B5_BEST_400_#1_High_Quality(#26)-227mV.txt
Data Source:  Experiment
Instrument Model:  CHI660E
Header:
Note:

Init E (V) = 0.899

Final E (V) = 1.528

Scan Rate (V/s) = 0.010
Sample Interval (V) = 0.001
Quiet Time (sec) = 2
Sensitivity (A/V) = 0.001
Comp R (ohm) = 6.1

Results:

Channel 1:

Potential/V, Current/A
0.899,   1.415e-4
0.902,   1.709e-4
0.905,   1.696e-4
0.908,   1.699e-4
0.911,   1.666e-4
0.914,   1.650e-4
0.917,   1.641e-4
0.920,   1.604e-4
0.923,   1.581e-4
0.926,   1.567e-4
0.929,   1.551e-4
0.932,   1.526e-4
0.935,   1.529e-4
0.938,   1.502e-4
0.941,   1.504e-4
0.944,   1.500e-4
0.947,   1.472e-4
0.950,   1.483e-4
0.953,   1.446e-4
0.956,   1.457e-4
0.959,   1.456e-4
0.962,   1.439e-4
0.965,   1.416e-4
0.968,   1.427e-4
0.971,   1.411e-4
0.974,   1.411e-4
0.977,   1.406e-4
0.980,   1.408e-4
0.983,   1.398e-4
0.986,   1.390e-4
0.989,   1.384e-4
0.992,   1.380e-4
0.995,   1.389e-4
0.998,   1.390e-4
1.001,   1.387e-4
1.004,   1.378e-4
1.007,   1.380e-4
1.010,   1.381e-4
1.013,   1.360e-4
1.016,   1.373e-4
1.019,   1.363e-4
1.022,   1.379e-4
1.025,   1.370e-4
1.028,   1.381e-4
1.031,   1.370e-4
1.034,   1.379e-4
1.037,   1.376e-4
1.040,   1.379e-4
1.043,   1.378e-4
1.046,   1.386e-4
1.049,   1.392e-4
1.052,   1.387e-4
1.055,   1.394e-4
1.058,   1.380e-4
1.061,   1.418e-4
1.064,   1.387e-4
1.067,   1.407e-4
1.070,   1.401e-4
1.073,   1.407e-4
1.076,   1.397e-4
1.079,   1.410e-4
1.082,   1.431e-4
1.085,   1.406e-4
1.088,   1.435e-4
1.091,   1.430e-4
1.094,   1.439e-4
1.097,   1.446e-4
1.100,   1.441e-4
1.103,   1.435e-4
1.106,   1.450e-4
1.109,   1.472e-4
1.112,   1.475e-4
1.115,   1.505e-4
1.118,   1.477e-4
1.121,   1.514e-4
1.124,   1.475e-4
1.127,   1.500e-4
1.130,   1.473e-4
1.133,   1.515e-4
1.136,   1.494e-4
1.139,   1.533e-4
1.142,   1.548e-4
1.145,   1.549e-4
1.148,   1.588e-4
1.151,   1.555e-4
1.154,   1.589e-4
1.157,   1.531e-4
1.160,   1.573e-4
1.163,   1.536e-4
1.166,   1.587e-4
1.169,   1.600e-4
1.172,   1.602e-4
1.175,   1.661e-4
1.178,   1.608e-4
1.181,   1.685e-4
1.184,   1.614e-4
1.187,   1.656e-4
1.190,   1.632e-4
1.193,   1.662e-4
1.196,   1.649e-4
1.199,   1.664e-4
1.202,   1.696e-4
1.205,   1.689e-4
1.208,   1.754e-4
1.211,   1.708e-4
1.214,   1.753e-4
1.217,   1.706e-4
1.220,   1.739e-4
1.223,   1.698e-4
1.226,   1.750e-4
1.229,   1.757e-4
1.232,   1.762e-4
1.235,   1.815e-4
1.238,   1.786e-4
1.241,   1.835e-4
1.244,   1.767e-4
1.247,   1.828e-4
1.250,   1.775e-4
1.253,   1.823e-4
1.256,   1.802e-4
1.259,   1.845e-4
1.262,   1.871e-4
1.265,   1.852e-4
1.268,   1.923e-4
1.271,   1.864e-4
1.274,   1.927e-4
1.277,   1.850e-4
1.280,   1.921e-4
1.283,   1.877e-4
1.286,   1.941e-4
1.289,   1.917e-4
1.292,   1.953e-4
1.295,   1.988e-4
1.298,   1.974e-4
1.301,   2.024e-4
1.304,   1.962e-4
1.307,   2.017e-4
1.310,   1.995e-4
1.313,   2.060e-4
1.316,   2.007e-4
1.319,   2.056e-4
1.322,   2.059e-4
1.325,   2.122e-4
1.328,   2.157e-4
1.331,   2.123e-4
1.334,   2.188e-4
1.337,   2.156e-4
1.340,   2.201e-4
1.343,   2.161e-4
1.346,   2.237e-4
1.349,   2.212e-4
1.352,   2.285e-4
1.355,   2.330e-4
1.358,   2.334e-4
1.361,   2.425e-4
1.364,   2.385e-4
1.367,   2.457e-4
1.370,   2.445e-4
1.373,   2.513e-4
1.376,   2.489e-4
1.379,   2.587e-4
1.382,   2.621e-4
1.385,   2.684e-4
1.388,   2.798e-4
1.391,   2.803e-4
1.394,   2.943e-4
1.397,   2.928e-4
1.400,   3.096e-4
1.403,   3.130e-4
1.406,   3.332e-4
1.409,   3.447e-4
1.412,   3.657e-4
1.415,   3.901e-4
1.418,   4.135e-4
1.421,   4.476e-4
1.424,   4.776e-4
1.427,   5.332e-4
1.430,   5.726e-4
1.433,   6.485e-4
1.436,   7.214e-4
1.439,   8.181e-4
1.442,   9.459e-4
1.445,   1.068e-3
1.448,   1.256e-3
1.451,   1.414e-3
1.454,   1.653e-3
1.457,   1.847e-3
1.460,   2.180e-3
1.463,   2.463e-3
1.466,   2.872e-3
1.469,   3.361e-3
1.472,   3.783e-3
1.475,   4.530e-3
1.478,   4.977e-3
1.481,   5.752e-3
1.484,   6.256e-3
1.487,   7.159e-3
1.490,   7.748e-3
1.493,   8.751e-3
1.496,   9.526e-3
1.499,   1.001e-2
1.502,   1.007e-2
1.505,   1.007e-2
1.508,   1.007e-2
1.511,   1.007e-2
1.514,   1.007e-2
1.517,   1.007e-2
1.520,   1.007e-2
1.523,   1.007e-2
1.526,   1.007e-2
1.528,   1.007e-2

File: B5_BEST_400_#1_High_Quality(#27)-240mV.txt
May 31, 2023   15:11:37
Linear Sweep Voltammetry
File: d:\current work\al_oer\electrochemical test data\batch 5\400\B5_BEST_400_#1_High_Quality(#27)-240mV.txt
Data Source:  Experiment
Instrument Model:  CHI660E
Header:
Note:

Init E (V) = 0.903

Final E (V) = 1.537

Scan Rate (V/s) = 0.010
Sample Interval (V) = 0.001
Quiet Time (sec) = 2
Sensitivity (A/V) = 0.001
Comp R (ohm) = 6.4

Results:

Channel 1:

Potential/V, Current/A
0.903,   2.507e-4
0.906,   2.729e-4
0.909,   2.655e-4
0.912,   2.673e-4
0.915,   2.555e-4
0.918,   2.492e-4
0.921,   2.509e-4
0.924,   2.400e-4
0.927,   2.349e-4
0.930,   2.353e-4
0.933,   2.259e-4
0.936,   2.235e-4
0.939,   2.233e-4
0.942,   2.157e-4
0.945,   2.146e-4
0.948,   2.126e-4
0.951,   2.065e-4
0.954,   2.081e-4
0.957,   2.049e-4
0.960,   1.996e-4
0.963,   2.020e-4
0.966,   1.979e-4
0.969,   1.943e-4
0.972,   1.970e-4
0.975,   1.922e-4
0.978,   1.887e-4
0.981,   1.927e-4
0.984,   1.866e-4
0.987,   1.849e-4
0.990,   1.890e-4
0.993,   1.829e-4
0.996,   1.816e-4
0.999,   1.857e-4
1.002,   1.813e-4
1.005,   1.786e-4
1.008,   1.815e-4
1.011,   1.771e-4
1.014,   1.781e-4
1.017,   1.784e-4
1.020,   1.762e-4
1.023,   1.771e-4
1.026,   1.763e-4
1.029,   1.740e-4
1.032,   1.764e-4
1.035,   1.754e-4
1.038,   1.723e-4
1.041,   1.760e-4
1.044,   1.735e-4
1.047,   1.714e-4
1.050,   1.764e-4
1.053,   1.730e-4
1.056,   1.719e-4
1.059,   1.760e-4
1.062,   1.725e-4
1.065,   1.719e-4
1.068,   1.758e-4
1.071,   1.717e-4
1.074,   1.736e-4
1.077,   1.760e-4
1.080,   1.719e-4
1.083,   1.753e-4
1.086,   1.751e-4
1.089,   1.736e-4
1.092,   1.766e-4
1.095,   1.765e-4
1.098,   1.758e-4
1.101,   1.798e-4
1.104,   1.779e-4
1.107,   1.766e-4
1.110,   1.828e-4
1.113,   1.797e-4
1.116,   1.789e-4
1.119,   1.852e-4
1.122,   1.803e-4
1.125,   1.820e-4
1.128,   1.891e-4
1.131,   1.826e-4
1.134,   1.855e-4
1.137,   1.912e-4
1.140,   1.866e-4
1.143,   1.877e-4
1.146,   1.950e-4
1.149,   1.896e-4
1.152,   1.917e-4
1.155,   1.960e-4
1.158,   1.924e-4
1.161,   1.962e-4
1.164,   1.983e-4
1.167,   1.954e-4
1.170,   2.011e-4
1.173,   1.999e-4
1.176,   1.982e-4
1.179,   2.038e-4
1.182,   2.019e-4
1.185,   2.000e-4
1.188,   2.068e-4
1.191,   2.027e-4
1.194,   2.017e-4
1.197,   2.102e-4
1.200,   2.056e-4
1.203,   2.051e-4
1.206,   2.122e-4
1.209,   2.041e-4
1.212,   2.074e-4
1.215,   2.146e-4
1.218,   2.116e-4
1.221,   2.124e-4
1.224,   2.155e-4
1.227,   2.121e-4
1.230,   2.155e-4
1.233,   2.190e-4
1.236,   2.164e-4
1.239,   2.203e-4
1.242,   2.219e-4
1.245,   2.173e-4
1.248,   2.259e-4
1.251,   2.232e-4
1.254,   2.206e-4
1.257,   2.305e-4
1.260,   2.268e-4
1.263,   2.238e-4
1.266,   2.322e-4
1.269,   2.281e-4
1.272,   2.270e-4
1.275,   2.355e-4
1.278,   2.296e-4
1.281,   2.312e-4
1.284,   2.391e-4
1.287,   2.314e-4
1.290,   2.359e-4
1.293,   2.419e-4
1.296,   2.345e-4
1.299,   2.397e-4
1.302,   2.462e-4
1.305,   2.387e-4
1.308,   2.459e-4
1.311,   2.474e-4
1.314,   2.440e-4
1.317,   2.535e-4
1.320,   2.494e-4
1.323,   2.474e-4
1.326,   2.593e-4
1.329,   2.538e-4
1.332,   2.524e-4
1.335,   2.668e-4
1.338,   2.592e-4
1.341,   2.605e-4
1.344,   2.726e-4
1.347,   2.650e-4
1.350,   2.668e-4
1.353,   2.790e-4
1.356,   2.702e-4
1.359,   2.748e-4
1.362,   2.846e-4
1.365,   2.790e-4
1.368,   2.846e-4
1.371,   2.953e-4
1.374,   2.895e-4
1.377,   2.988e-4
1.380,   3.050e-4
1.383,   3.005e-4
1.386,   3.174e-4
1.389,   3.165e-4
1.392,   3.188e-4
1.395,   3.356e-4
1.398,   3.338e-4
1.401,   3.352e-4
1.404,   3.601e-4
1.407,   3.560e-4
1.410,   3.647e-4
1.413,   3.958e-4
1.416,   3.942e-4
1.419,   4.093e-4
1.422,   4.489e-4
1.425,   4.496e-4
1.428,   4.838e-4
1.431,   5.345e-4
1.434,   5.509e-4
1.437,   6.058e-4
1.440,   6.650e-4
1.443,   7.050e-4
1.446,   8.081e-4
1.449,   8.878e-4
1.452,   9.569e-4
1.455,   1.116e-3
1.458,   1.224e-3
1.461,   1.348e-3
1.464,   1.585e-3
1.467,   1.726e-3
1.470,   1.920e-3
1.473,   2.241e-3
1.476,   2.396e-3
1.479,   2.678e-3
1.482,   3.098e-3
1.485,   3.290e-3
1.488,   3.662e-3
1.491,   4.184e-3
1.494,   4.349e-3
1.497,   4.834e-3
1.500,   5.381e-3
1.503,   5.562e-3
1.506,   6.056e-3
1.509,   6.580e-3
1.512,   6.713e-3
1.515,   7.639e-3
1.518,   8.070e-3
1.521,   8.244e-3
1.524,   8.904e-3
1.527,   9.099e-3
1.530,   9.109e-3
1.533,   9.586e-3
1.536,   9.837e-3
1.537,   9.881e-3

File: B5_BEST_400_#1_High_Quality(#31)-255mV.txt
May 31, 2023   13:54:26
Linear Sweep Voltammetry
File: d:\current work\al_oer\electrochemical test data\batch 5\400\B5_BEST_400_#1_High_Quality(#31)-255mV.txt
Data Source:  Experiment
Instrument Model:  CHI660E
Header:
Note:

Init E (V) = 0.900

Final E (V) = 1.699

Scan Rate (V/s) = 0.010
Sample Interval (V) = 0.001
Quiet Time (sec) = 2
Sensitivity (A/V) = 0.001
Comp R (ohm) = 6.0

Results:

Channel 1:

Potential/V, Current/A
0.900,   5.754e-5
0.903,   6.574e-5
0.906,   6.512e-5
0.909,   6.435e-5
0.912,   6.415e-5
0.915,   6.328e-5
0.918,   6.234e-5
0.921,   6.142e-5
0.924,   6.124e-5
0.927,   6.063e-5
0.930,   5.953e-5
0.933,   5.871e-5
0.936,   5.884e-5
0.939,   5.795e-5
0.942,   5.724e-5
0.945,   5.656e-5
0.948,   5.647e-5
0.951,   5.594e-5
0.954,   5.533e-5
0.957,   5.456e-5
0.960,   5.461e-5
0.963,   5.431e-5
0.966,   5.382e-5
0.969,   5.335e-5
0.972,   5.327e-5
0.975,   5.304e-5
0.978,   5.264e-5
0.981,   5.210e-5
0.984,   5.218e-5
0.987,   5.188e-5
0.990,   5.132e-5
0.993,   5.109e-5
0.996,   5.105e-5
0.999,   5.111e-5
1.002,   5.090e-5
1.005,   5.040e-5
1.008,   4.995e-5
1.011,   5.030e-5
1.014,   5.014e-5
1.017,   4.981e-5
1.020,   4.980e-5
1.023,   4.947e-5
1.026,   4.932e-5
1.029,   4.916e-5
1.032,   4.904e-5
1.035,   4.922e-5
1.038,   4.912e-5
1.041,   4.897e-5
1.044,   4.879e-5
1.047,   4.945e-5
1.050,   4.902e-5
1.053,   4.888e-5
1.056,   4.876e-5
1.059,   4.935e-5
1.062,   4.902e-5
1.065,   4.908e-5
1.068,   4.893e-5
1.071,   4.919e-5
1.074,   4.934e-5
1.077,   4.913e-5
1.080,   4.901e-5
1.083,   4.987e-5
1.086,   4.970e-5
1.089,   4.957e-5
1.092,   4.953e-5
1.095,   5.039e-5
1.098,   5.017e-5
1.101,   5.007e-5
1.104,   4.995e-5
1.107,   5.076e-5
1.110,   5.078e-5
1.113,   5.087e-5
1.116,   5.066e-5
1.119,   5.158e-5
1.122,   5.159e-5
1.125,   5.163e-5
1.128,   5.143e-5
1.131,   5.223e-5
1.134,   5.259e-5
1.137,   5.262e-5
1.140,   5.261e-5
1.143,   5.338e-5
1.146,   5.379e-5
1.149,   5.383e-5
1.152,   5.404e-5
1.155,   5.455e-5
1.158,   5.493e-5
1.161,   5.511e-5
1.164,   5.525e-5
1.167,   5.589e-5
1.170,   5.631e-5
1.173,   5.671e-5
1.176,   5.643e-5
1.179,   5.704e-5
1.182,   5.763e-5
1.185,   5.781e-5
1.188,   5.806e-5
1.191,   5.842e-5
1.194,   5.933e-5
1.197,   5.943e-5
1.200,   5.979e-5
1.203,   6.029e-5
1.206,   6.111e-5
1.209,   6.151e-5
1.212,   6.144e-5
1.215,   6.208e-5
1.218,   6.312e-5
1.221,   6.322e-5
1.224,   6.359e-5
1.227,   6.397e-5
1.230,   6.541e-5
1.233,   6.550e-5
1.236,   6.601e-5
1.239,   6.626e-5
1.242,   6.794e-5
1.245,   6.781e-5
1.248,   6.860e-5
1.251,   6.894e-5
1.254,   7.030e-5
1.257,   7.103e-5
1.260,   7.159e-5
1.263,   7.205e-5
1.266,   7.369e-5
1.269,   7.443e-5
1.272,   7.476e-5
1.275,   7.550e-5
1.278,   7.705e-5
1.281,   7.822e-5
1.284,   7.902e-5
1.287,   7.902e-5
1.290,   8.134e-5
1.293,   8.233e-5
1.296,   8.308e-5
1.299,   8.355e-5
1.302,   8.604e-5
1.305,   8.735e-5
1.308,   8.780e-5
1.311,   8.851e-5
1.314,   9.088e-5
1.317,   9.215e-5
1.320,   9.278e-5
1.323,   9.372e-5
1.326,   9.681e-5
1.329,   9.823e-5
1.332,   9.975e-5
1.335,   1.005e-4
1.338,   1.026e-4
1.341,   1.049e-4
1.344,   1.063e-4
1.347,   1.074e-4
1.350,   1.107e-4
1.353,   1.132e-4
1.356,   1.148e-4
1.359,   1.166e-4
1.362,   1.192e-4
1.365,   1.226e-4
1.368,   1.251e-4
1.371,   1.276e-4
1.374,   1.311e-4
1.377,   1.352e-4
1.380,   1.383e-4
1.383,   1.420e-4
1.386,   1.468e-4
1.389,   1.523e-4
1.392,   1.563e-4
1.395,   1.620e-4
1.398,   1.668e-4
1.401,   1.763e-4
1.404,   1.834e-4
1.407,   1.921e-4
1.410,   2.011e-4
1.413,   2.141e-4
1.416,   2.262e-4
1.419,   2.416e-4
1.422,   2.561e-4
1.425,   2.807e-4
1.428,   3.035e-4
1.431,   3.313e-4
1.434,   3.589e-4
1.437,   4.013e-4
1.440,   4.428e-4
1.443,   4.930e-4
1.446,   5.461e-4
1.449,   6.184e-4
1.452,   6.915e-4
1.455,   7.714e-4
1.458,   8.533e-4
1.461,   9.589e-4
1.464,   1.064e-3
1.467,   1.168e-3
1.470,   1.285e-3
1.473,   1.415e-3
1.476,   1.537e-3
1.479,   1.658e-3
1.482,   1.774e-3
1.485,   1.904e-3
1.488,   2.040e-3
1.491,   2.175e-3
1.494,   2.283e-3
1.497,   2.424e-3
1.500,   2.555e-3
1.503,   2.643e-3
1.506,   2.763e-3
1.509,   2.857e-3
1.512,   3.007e-3
1.515,   3.127e-3
1.518,   3.262e-3
1.521,   3.368e-3
1.524,   3.516e-3
1.527,   3.631e-3
1.530,   3.725e-3
1.533,   3.841e-3
1.536,   3.977e-3
1.539,   4.097e-3
1.542,   4.183e-3
1.545,   4.273e-3
1.548,   4.440e-3
1.551,   4.552e-3
1.554,   4.627e-3
1.557,   4.702e-3
1.560,   4.816e-3
1.563,   4.897e-3
1.566,   4.920e-3
1.569,   4.981e-3
1.572,   5.082e-3
1.575,   5.167e-3
1.578,   5.225e-3
1.581,   5.227e-3
1.584,   5.324e-3
1.587,   5.395e-3
1.590,   5.475e-3
1.593,   5.427e-3
1.596,   5.514e-3
1.599,   5.552e-3
1.602,   5.622e-3
1.605,   5.619e-3
1.608,   5.666e-3
1.611,   5.756e-3
1.614,   5.730e-3
1.617,   5.771e-3
1.620,   5.807e-3
1.623,   5.922e-3
1.626,   5.910e-3
1.629,   5.860e-3
1.632,   5.957e-3
1.635,   6.043e-3
1.638,   5.988e-3
1.641,   5.987e-3
1.644,   6.010e-3
1.647,   6.064e-3
1.650,   6.084e-3
1.653,   6.021e-3
1.656,   6.050e-3
1.659,   6.113e-3
1.662,   6.129e-3
1.665,   6.073e-3
1.668,   6.142e-3
1.671,   6.096e-3
1.674,   6.084e-3
1.677,   6.092e-3
1.680,   6.068e-3
1.683,   6.070e-3
1.686,   6.000e-3
1.689,   5.949e-3
1.692,   5.985e-3
1.695,   5.990e-3
1.698,   5.943e-3
1.699,   5.925e-3