Folder: DASH/Experimental Records, Raw Data, and Supplementary Notes and Figures/batch5/final500 (part 3)

File: B5_BEST_500_#1_High_Quality(#29)-217mV.txt
June 9, 2023   15:28:53
Linear Sweep Voltammetry
File: d:\current work\al_oer\electrochemical test data\batch 5\500\B5_BEST_500_#1_High_Quality(#29)-217mV.txt
Data Source:  Experiment
Instrument Model:  CHI660E
Header:
Note:

Init E (V) = 0.888

Final E (V) = 1.505

Scan Rate (V/s) = 0.010
Sample Interval (V) = 0.001
Quiet Time (sec) = 2
Sensitivity (A/V) = 0.001
Comp R (ohm) = 4.0

Results:

Channel 1:

Potential/V, Current/A
0.888,   1.436e-4
0.891,   1.597e-4
0.894,   1.585e-4
0.897,   1.536e-4
0.900,   1.532e-4
0.903,   1.504e-4
0.906,   1.467e-4
0.909,   1.468e-4
0.912,   1.437e-4
0.915,   1.414e-4
0.918,   1.411e-4
0.921,   1.385e-4
0.924,   1.365e-4
0.927,   1.360e-4
0.930,   1.343e-4
0.933,   1.335e-4
0.936,   1.315e-4
0.939,   1.313e-4
0.942,   1.302e-4
0.945,   1.275e-4
0.948,   1.278e-4
0.951,   1.270e-4
0.954,   1.247e-4
0.957,   1.255e-4
0.960,   1.243e-4
0.963,   1.221e-4
0.966,   1.231e-4
0.969,   1.213e-4
0.972,   1.207e-4
0.975,   1.204e-4
0.978,   1.194e-4
0.981,   1.195e-4
0.984,   1.178e-4
0.987,   1.182e-4
0.990,   1.175e-4
0.993,   1.163e-4
0.996,   1.169e-4
0.999,   1.167e-4
1.002,   1.149e-4
1.005,   1.162e-4
1.008,   1.153e-4
1.011,   1.146e-4
1.014,   1.151e-4
1.017,   1.141e-4
1.020,   1.141e-4
1.023,   1.137e-4
1.026,   1.133e-4
1.029,   1.141e-4
1.032,   1.126e-4
1.035,   1.132e-4
1.038,   1.132e-4
1.041,   1.115e-4
1.044,   1.134e-4
1.047,   1.125e-4
1.050,   1.119e-4
1.053,   1.133e-4
1.056,   1.132e-4
1.059,   1.125e-4
1.062,   1.137e-4
1.065,   1.131e-4
1.068,   1.134e-4
1.071,   1.131e-4
1.074,   1.132e-4
1.077,   1.135e-4
1.080,   1.130e-4
1.083,   1.144e-4
1.086,   1.150e-4
1.089,   1.132e-4
1.092,   1.146e-4
1.095,   1.164e-4
1.098,   1.146e-4
1.101,   1.167e-4
1.104,   1.165e-4
1.107,   1.170e-4
1.110,   1.179e-4
1.113,   1.173e-4
1.116,   1.177e-4
1.119,   1.181e-4
1.122,   1.181e-4
1.125,   1.201e-4
1.128,   1.184e-4
1.131,   1.199e-4
1.134,   1.217e-4
1.137,   1.198e-4
1.140,   1.226e-4
1.143,   1.226e-4
1.146,   1.218e-4
1.149,   1.238e-4
1.152,   1.242e-4
1.155,   1.244e-4
1.158,   1.267e-4
1.161,   1.256e-4
1.164,   1.274e-4
1.167,   1.269e-4
1.170,   1.279e-4
1.173,   1.298e-4
1.176,   1.280e-4
1.179,   1.304e-4
1.182,   1.307e-4
1.185,   1.290e-4
1.188,   1.341e-4
1.191,   1.348e-4
1.194,   1.327e-4
1.197,   1.365e-4
1.200,   1.362e-4
1.203,   1.369e-4
1.206,   1.390e-4
1.209,   1.387e-4
1.212,   1.409e-4
1.215,   1.405e-4
1.218,   1.424e-4
1.221,   1.442e-4
1.224,   1.435e-4
1.227,   1.458e-4
1.230,   1.469e-4
1.233,   1.451e-4
1.236,   1.498e-4
1.239,   1.502e-4
1.242,   1.490e-4
1.245,   1.536e-4
1.248,   1.532e-4
1.251,   1.545e-4
1.254,   1.574e-4
1.257,   1.572e-4
1.260,   1.588e-4
1.263,   1.594e-4
1.266,   1.599e-4
1.269,   1.636e-4
1.272,   1.612e-4
1.275,   1.651e-4
1.278,   1.674e-4
1.281,   1.649e-4
1.284,   1.708e-4
1.287,   1.711e-4
1.290,   1.704e-4
1.293,   1.757e-4
1.296,   1.747e-4
1.299,   1.768e-4
1.302,   1.806e-4
1.305,   1.804e-4
1.308,   1.833e-4
1.311,   1.832e-4
1.314,   1.853e-4
1.317,   1.898e-4
1.320,   1.865e-4
1.323,   1.942e-4
1.326,   1.959e-4
1.329,   1.933e-4
1.332,   2.015e-4
1.335,   2.020e-4
1.338,   2.023e-4
1.341,   2.090e-4
1.344,   2.098e-4
1.347,   2.133e-4
1.350,   2.181e-4
1.353,   2.194e-4
1.356,   2.259e-4
1.359,   2.276e-4
1.362,   2.341e-4
1.365,   2.405e-4
1.368,   2.400e-4
1.371,   2.526e-4
1.374,   2.578e-4
1.377,   2.601e-4
1.380,   2.763e-4
1.383,   2.820e-4
1.386,   2.890e-4
1.389,   3.072e-4
1.392,   3.156e-4
1.395,   3.312e-4
1.398,   3.517e-4
1.401,   3.675e-4
1.404,   3.954e-4
1.407,   4.149e-4
1.410,   4.508e-4
1.413,   4.907e-4
1.416,   5.206e-4
1.419,   5.888e-4
1.422,   6.482e-4
1.425,   7.044e-4
1.428,   8.201e-4
1.431,   9.097e-4
1.434,   1.019e-3
1.437,   1.194e-3
1.440,   1.341e-3
1.443,   1.542e-3
1.446,   1.793e-3
1.449,   2.039e-3
1.452,   2.374e-3
1.455,   2.718e-3
1.458,   3.135e-3
1.461,   3.635e-3
1.464,   4.089e-3
1.467,   4.755e-3
1.470,   5.400e-3
1.473,   5.993e-3
1.476,   6.915e-3
1.479,   7.663e-3
1.482,   8.351e-3
1.485,   9.346e-3
1.488,   9.852e-3
1.491,   9.946e-3
1.494,   1.006e-2
1.497,   1.007e-2
1.500,   1.007e-2
1.503,   1.007e-2
1.505,   1.007e-2

File: B5_BEST_500_#1_High_Quality(#30)-196mV.txt
June 9, 2023   16:35:39
Linear Sweep Voltammetry
File: d:\current work\al_oer\electrochemical test data\batch 5\500\B5_BEST_500_#1_High_Quality(#30)-196mV.txt
Data Source:  Experiment
Instrument Model:  CHI660E
Header:
Note:

Init E (V) = 0.890

Final E (V) = 1.477

Scan Rate (V/s) = 0.010
Sample Interval (V) = 0.001
Quiet Time (sec) = 2
Sensitivity (A/V) = 0.001
Comp R (ohm) = 4.0

Results:

Channel 1:

Potential/V, Current/A
0.890,   3.189e-4
0.892,   3.921e-4
0.894,   3.916e-4
0.896,   3.867e-4
0.898,   3.830e-4
0.900,   3.787e-4
0.902,   3.756e-4
0.904,   3.709e-4
0.906,   3.718e-4
0.908,   3.675e-4
0.910,   3.615e-4
0.912,   3.668e-4
0.914,   3.590e-4
0.916,   3.574e-4
0.918,   3.601e-4
0.920,   3.523e-4
0.922,   3.489e-4
0.924,   3.527e-4
0.926,   3.451e-4
0.928,   3.444e-4
0.930,   3.479e-4
0.932,   3.398e-4
0.934,   3.411e-4
0.936,   3.390e-4
0.938,   3.411e-4
0.940,   3.327e-4
0.942,   3.321e-4
0.944,   3.367e-4
0.946,   3.333e-4
0.948,   3.291e-4
0.950,   3.363e-4
0.952,   3.298e-4
0.954,   3.297e-4
0.956,   3.303e-4
0.958,   3.227e-4
0.960,   3.239e-4
0.962,   3.298e-4
0.964,   3.224e-4
0.966,   3.249e-4
0.968,   3.303e-4
0.970,   3.215e-4
0.972,   3.205e-4
0.974,   3.233e-4
0.976,   3.203e-4
0.978,   3.221e-4
0.980,   3.213e-4
0.982,   3.194e-4
0.984,   3.198e-4
0.986,   3.178e-4
0.988,   3.200e-4
0.990,   3.177e-4
0.992,   3.163e-4
0.994,   3.185e-4
0.996,   3.168e-4
0.998,   3.141e-4
1.000,   3.211e-4
1.002,   3.168e-4
1.004,   3.140e-4
1.006,   3.207e-4
1.008,   3.145e-4
1.010,   3.157e-4
1.012,   3.188e-4
1.014,   3.150e-4
1.016,   3.183e-4
1.018,   3.151e-4
1.020,   3.192e-4
1.022,   3.126e-4
1.024,   3.197e-4
1.026,   3.137e-4
1.028,   3.207e-4
1.030,   3.142e-4
1.032,   3.194e-4
1.034,   3.180e-4
1.036,   3.150e-4
1.038,   3.213e-4
1.040,   3.184e-4
1.042,   3.154e-4
1.044,   3.233e-4
1.046,   3.169e-4
1.048,   3.180e-4
1.050,   3.218e-4
1.052,   3.168e-4
1.054,   3.179e-4
1.056,   3.236e-4
1.058,   3.182e-4
1.060,   3.176e-4
1.062,   3.223e-4
1.064,   3.213e-4
1.066,   3.234e-4
1.068,   3.236e-4
1.070,   3.253e-4
1.072,   3.254e-4
1.074,   3.238e-4
1.076,   3.275e-4
1.078,   3.270e-4
1.080,   3.268e-4
1.082,   3.363e-4
1.084,   3.266e-4
1.086,   3.287e-4
1.088,   3.369e-4
1.090,   3.305e-4
1.092,   3.300e-4
1.094,   3.398e-4
1.096,   3.338e-4
1.098,   3.311e-4
1.100,   3.412e-4
1.102,   3.322e-4
1.104,   3.423e-4
1.106,   3.416e-4
1.108,   3.374e-4
1.110,   3.414e-4
1.112,   3.434e-4
1.114,   3.439e-4
1.116,   3.453e-4
1.118,   3.442e-4
1.120,   3.501e-4
1.122,   3.465e-4
1.124,   3.461e-4
1.126,   3.544e-4
1.128,   3.524e-4
1.130,   3.517e-4
1.132,   3.569e-4
1.134,   3.512e-4
1.136,   3.552e-4
1.138,   3.700e-4
1.140,   3.550e-4
1.142,   3.598e-4
1.144,   3.667e-4
1.146,   3.598e-4
1.148,   3.641e-4
1.150,   3.676e-4
1.152,   3.668e-4
1.154,   3.698e-4
1.156,   3.694e-4
1.158,   3.732e-4
1.160,   3.718e-4
1.162,   3.722e-4
1.164,   3.802e-4
1.166,   3.744e-4
1.168,   3.796e-4
1.170,   3.879e-4
1.172,   3.802e-4
1.174,   3.841e-4
1.176,   3.974e-4
1.178,   3.830e-4
1.180,   3.898e-4
1.182,   3.985e-4
1.184,   3.889e-4
1.186,   3.949e-4
1.188,   4.015e-4
1.190,   3.968e-4
1.192,   4.050e-4
1.194,   4.054e-4
1.196,   4.038e-4
1.198,   4.057e-4
1.200,   4.096e-4
1.202,   4.172e-4
1.204,   4.085e-4
1.206,   4.138e-4
1.208,   4.275e-4
1.210,   4.138e-4
1.212,   4.196e-4
1.214,   4.334e-4
1.216,   4.187e-4
1.218,   4.253e-4
1.220,   4.391e-4
1.222,   4.240e-4
1.224,   4.327e-4
1.226,   4.442e-4
1.228,   4.319e-4
1.230,   4.358e-4
1.232,   4.497e-4
1.234,   4.422e-4
1.236,   4.404e-4
1.238,   4.496e-4
1.240,   4.531e-4
1.242,   4.484e-4
1.244,   4.549e-4
1.246,   4.599e-4
1.248,   4.545e-4
1.250,   4.620e-4
1.252,   4.675e-4
1.254,   4.562e-4
1.256,   4.660e-4
1.258,   4.808e-4
1.260,   4.598e-4
1.262,   4.664e-4
1.264,   4.899e-4
1.266,   4.660e-4
1.268,   4.658e-4
1.270,   4.996e-4
1.272,   4.759e-4
1.274,   4.803e-4
1.276,   4.955e-4
1.278,   4.870e-4
1.280,   4.810e-4
1.282,   5.019e-4
1.284,   4.949e-4
1.286,   4.862e-4
1.288,   5.013e-4
1.290,   5.164e-4
1.292,   4.931e-4
1.294,   5.061e-4
1.296,   5.213e-4
1.298,   4.888e-4
1.300,   5.128e-4
1.302,   5.275e-4
1.304,   5.046e-4
1.306,   5.157e-4
1.308,   5.388e-4
1.310,   5.099e-4
1.312,   5.197e-4
1.314,   5.520e-4
1.316,   5.234e-4
1.318,   5.291e-4
1.320,   5.452e-4
1.322,   5.374e-4
1.324,   5.372e-4
1.326,   5.467e-4
1.328,   5.528e-4
1.330,   5.435e-4
1.332,   5.555e-4
1.334,   5.683e-4
1.336,   5.483e-4
1.338,   5.657e-4
1.340,   5.885e-4
1.342,   5.615e-4
1.344,   5.715e-4
1.346,   6.043e-4
1.348,   5.763e-4
1.350,   5.885e-4
1.352,   6.134e-4
1.354,   5.909e-4
1.356,   5.982e-4
1.358,   6.294e-4
1.360,   6.105e-4
1.362,   6.042e-4
1.364,   6.463e-4
1.366,   6.424e-4
1.368,   6.289e-4
1.370,   6.608e-4
1.372,   6.803e-4
1.374,   6.452e-4
1.376,   6.815e-4
1.378,   7.098e-4
1.380,   6.808e-4
1.382,   7.086e-4
1.384,   7.580e-4
1.386,   7.206e-4
1.388,   7.468e-4
1.390,   8.174e-4
1.392,   7.769e-4
1.394,   8.008e-4
1.396,   8.761e-4
1.398,   8.489e-4
1.400,   8.740e-4
1.402,   9.531e-4
1.404,   9.591e-4
1.406,   9.726e-4
1.408,   1.060e-3
1.410,   1.118e-3
1.412,   1.116e-3
1.414,   1.214e-3
1.416,   1.326e-3
1.418,   1.332e-3
1.420,   1.450e-3
1.422,   1.631e-3
1.424,   1.659e-3
1.426,   1.793e-3
1.428,   2.058e-3
1.430,   2.101e-3
1.432,   2.307e-3
1.434,   2.640e-3
1.436,   2.772e-3
1.438,   3.033e-3
1.440,   3.488e-3
1.442,   3.733e-3
1.444,   4.060e-3
1.446,   4.643e-3
1.448,   5.026e-3
1.450,   5.485e-3
1.452,   6.131e-3
1.454,   6.791e-3
1.456,   7.408e-3
1.458,   8.064e-3
1.460,   8.917e-3
1.462,   9.622e-3
1.464,   9.957e-3
1.466,   1.007e-2
1.468,   1.007e-2
1.470,   1.007e-2
1.472,   1.007e-2
1.474,   1.007e-2
1.476,   1.007e-2
1.477,   1.007e-2

File: B5_BEST_500_#1_High_Quality(#32)-168mV.txt
June 9, 2023   16:51:46
Linear Sweep Voltammetry
File: d:\current work\al_oer\electrochemical test data\batch 5\500\B5_BEST_500_#1_High_Quality(#32)-168mV.txt
Data Source:  Experiment
Instrument Model:  CHI660E
Header:
Note:

Init E (V) = 0.907

Final E (V) = 1.478

Scan Rate (V/s) = 0.010
Sample Interval (V) = 0.001
Quiet Time (sec) = 2
Sensitivity (A/V) = 0.001
Comp R (ohm) = 4.0

Results:

Channel 1:

Potential/V, Current/A
0.907,   9.099e-4
0.909,   1.096e-3
0.911,   1.003e-3
0.913,   1.061e-3
0.915,   9.614e-4
0.917,   1.009e-3
0.919,   9.205e-4
0.921,   9.686e-4
0.923,   8.837e-4
0.925,   9.367e-4
0.927,   8.551e-4
0.929,   9.086e-4
0.931,   8.295e-4
0.933,   8.829e-4
0.935,   8.033e-4
0.937,   8.643e-4
0.939,   7.874e-4
0.941,   8.389e-4
0.943,   7.698e-4
0.945,   8.169e-4
0.947,   7.609e-4
0.949,   7.986e-4
0.951,   7.407e-4
0.953,   7.888e-4
0.955,   7.331e-4
0.957,   7.700e-4
0.959,   7.214e-4
0.961,   7.609e-4
0.963,   7.178e-4
0.965,   7.399e-4
0.967,   7.077e-4
0.969,   7.345e-4
0.971,   6.972e-4
0.973,   7.310e-4
0.975,   6.911e-4
0.977,   7.251e-4
0.979,   6.868e-4
0.981,   7.045e-4
0.983,   6.770e-4
0.985,   6.974e-4
0.987,   6.777e-4
0.989,   6.849e-4
0.991,   6.718e-4
0.993,   6.780e-4
0.995,   6.735e-4
0.997,   6.698e-4
0.999,   6.697e-4
1.001,   6.665e-4
1.003,   6.756e-4
1.005,   6.681e-4
1.007,   6.631e-4
1.009,   6.632e-4
1.011,   6.622e-4
1.013,   6.558e-4
1.015,   6.659e-4
1.017,   6.492e-4
1.019,   6.665e-4
1.021,   6.406e-4
1.023,   6.691e-4
1.025,   6.426e-4
1.027,   6.684e-4
1.029,   6.406e-4
1.031,   6.788e-4
1.033,   6.447e-4
1.035,   6.734e-4
1.037,   6.410e-4
1.039,   6.757e-4
1.041,   6.385e-4
1.043,   6.801e-4
1.045,   6.317e-4
1.047,   6.869e-4
1.049,   6.341e-4
1.051,   6.958e-4
1.053,   6.321e-4
1.055,   6.871e-4
1.057,   6.371e-4
1.059,   6.864e-4
1.061,   6.320e-4
1.063,   6.925e-4
1.065,   6.374e-4
1.067,   7.028e-4
1.069,   6.281e-4
1.071,   7.025e-4
1.073,   6.344e-4
1.075,   7.011e-4
1.077,   6.277e-4
1.079,   7.133e-4
1.081,   6.305e-4
1.083,   7.276e-4
1.085,   6.293e-4
1.087,   7.179e-4
1.089,   6.357e-4
1.091,   7.173e-4
1.093,   6.363e-4
1.095,   7.173e-4
1.097,   6.404e-4
1.099,   7.150e-4
1.101,   6.419e-4
1.103,   7.179e-4
1.105,   6.461e-4
1.107,   7.171e-4
1.109,   6.482e-4
1.111,   7.168e-4
1.113,   6.538e-4
1.115,   7.158e-4
1.117,   6.583e-4
1.119,   7.197e-4
1.121,   6.694e-4
1.123,   7.203e-4
1.125,   6.552e-4
1.127,   7.222e-4
1.129,   6.764e-4
1.131,   7.202e-4
1.133,   6.802e-4
1.135,   7.204e-4
1.137,   6.852e-4
1.139,   7.258e-4
1.141,   6.865e-4
1.143,   7.251e-4
1.145,   6.898e-4
1.147,   7.253e-4
1.149,   7.032e-4
1.151,   7.264e-4
1.153,   7.128e-4
1.155,   7.305e-4
1.157,   7.212e-4
1.159,   7.371e-4
1.161,   7.218e-4
1.163,   7.402e-4
1.165,   7.462e-4
1.167,   7.351e-4
1.169,   7.412e-4
1.171,   7.488e-4
1.173,   7.563e-4
1.175,   7.455e-4
1.177,   7.715e-4
1.179,   7.630e-4
1.181,   7.768e-4
1.183,   7.602e-4
1.185,   8.054e-4
1.187,   7.561e-4
1.189,   8.022e-4
1.191,   7.722e-4
1.193,   8.153e-4
1.195,   7.754e-4
1.197,   8.361e-4
1.199,   7.815e-4
1.201,   8.392e-4
1.203,   7.963e-4
1.205,   8.420e-4
1.207,   8.023e-4
1.209,   8.548e-4
1.211,   8.143e-4
1.213,   8.689e-4
1.215,   8.240e-4
1.217,   8.806e-4
1.219,   8.276e-4
1.221,   8.880e-4
1.223,   8.412e-4
1.225,   8.936e-4
1.227,   8.454e-4
1.229,   9.177e-4
1.231,   8.404e-4
1.233,   9.362e-4
1.235,   8.489e-4
1.237,   9.493e-4
1.239,   8.615e-4
1.241,   9.586e-4
1.243,   8.621e-4
1.245,   9.653e-4
1.247,   8.706e-4
1.249,   9.851e-4
1.251,   8.823e-4
1.253,   9.993e-4
1.255,   8.837e-4
1.257,   1.017e-3
1.259,   8.915e-4
1.261,   1.044e-3
1.263,   8.992e-4
1.265,   1.029e-3
1.267,   8.959e-4
1.269,   1.046e-3
1.271,   9.167e-4
1.273,   1.038e-3
1.275,   8.981e-4
1.277,   1.056e-3
1.279,   9.457e-4
1.281,   1.060e-3
1.283,   9.612e-4
1.285,   1.068e-3
1.287,   9.741e-4
1.289,   1.071e-3
1.291,   9.881e-4
1.293,   1.086e-3
1.295,   9.874e-4
1.297,   1.093e-3
1.299,   1.030e-3
1.301,   1.078e-3
1.303,   1.032e-3
1.305,   1.098e-3
1.307,   1.053e-3
1.309,   1.157e-3
1.311,   1.024e-3
1.313,   1.174e-3
1.315,   1.042e-3
1.317,   1.196e-3
1.319,   1.040e-3
1.321,   1.188e-3
1.323,   1.087e-3
1.325,   1.199e-3
1.327,   1.096e-3
1.329,   1.232e-3
1.331,   1.114e-3
1.333,   1.247e-3
1.335,   1.127e-3
1.337,   1.261e-3
1.339,   1.148e-3
1.341,   1.290e-3
1.343,   1.152e-3
1.345,   1.282e-3
1.347,   1.222e-3
1.349,   1.275e-3
1.351,   1.264e-3
1.353,   1.240e-3
1.355,   1.328e-3
1.357,   1.309e-3
1.359,   1.296e-3
1.361,   1.344e-3
1.363,   1.335e-3
1.365,   1.362e-3
1.367,   1.374e-3
1.369,   1.375e-3
1.371,   1.442e-3
1.373,   1.355e-3
1.375,   1.529e-3
1.377,   1.436e-3
1.379,   1.548e-3
1.381,   1.495e-3
1.383,   1.582e-3
1.385,   1.553e-3
1.387,   1.659e-3
1.389,   1.597e-3
1.391,   1.743e-3
1.393,   1.705e-3
1.395,   1.847e-3
1.397,   1.774e-3
1.399,   1.981e-3
1.401,   1.864e-3
1.403,   2.107e-3
1.405,   2.013e-3
1.407,   2.239e-3
1.409,   2.164e-3
1.411,   2.442e-3
1.413,   2.334e-3
1.415,   2.634e-3
1.417,   2.592e-3
1.419,   2.878e-3
1.421,   2.850e-3
1.423,   3.178e-3
1.425,   3.167e-3
1.427,   3.571e-3
1.429,   3.558e-3
1.431,   4.078e-3
1.433,   4.029e-3
1.435,   4.659e-3
1.437,   4.652e-3
1.439,   5.486e-3
1.441,   5.451e-3
1.443,   6.487e-3
1.445,   6.341e-3
1.447,   7.364e-3
1.449,   7.734e-3
1.451,   8.663e-3
1.453,   9.117e-3
1.455,   9.856e-3
1.457,   1.000e-2
1.459,   1.007e-2
1.461,   1.007e-2
1.463,   1.007e-2
1.465,   1.007e-2
1.467,   1.007e-2
1.469,   1.007e-2
1.471,   1.007e-2
1.473,   1.007e-2
1.475,   1.007e-2
1.477,   1.007e-2
1.478,   1.007e-2