Folder: DASH/Experimental Records, Raw Data, and Supplementary Notes and Figures/batch5/final400 (part 2)

File: B5_BEST_400_#1_Full(#9)-200mV.txt
May 31, 2023   15:37:17
Linear Sweep Voltammetry
File: d:\current work\al_oer\electrochemical test data\batch 5\400\B5_BEST_400_#1_Full(#9)-200mV.txt
Data Source:  Experiment
Instrument Model:  CHI660E
Header:
Note:

Init E (V) = 0.900

Final E (V) = 1.516

Scan Rate (V/s) = 0.010
Sample Interval (V) = 0.001
Quiet Time (sec) = 2
Sensitivity (A/V) = 0.001
Comp R (ohm) = 5.9

Results:

Channel 1:
Ep = 1.476V
ip = 9.422e-3A
Ah = 1.093e-2C

Potential/V, Current/A
0.900,   4.079e-4
0.903,   4.879e-4
0.906,   4.806e-4
0.909,   4.748e-4
0.912,   4.666e-4
0.915,   4.611e-4
0.918,   4.510e-4
0.921,   4.476e-4
0.924,   4.409e-4
0.927,   4.371e-4
0.930,   4.365e-4
0.933,   4.309e-4
0.936,   4.267e-4
0.939,   4.216e-4
0.942,   4.185e-4
0.945,   4.167e-4
0.948,   4.160e-4
0.951,   4.146e-4
0.954,   4.088e-4
0.957,   4.072e-4
0.960,   4.035e-4
0.963,   4.056e-4
0.966,   4.096e-4
0.969,   4.075e-4
0.972,   4.161e-4
0.975,   4.107e-4
0.978,   4.084e-4
0.981,   4.035e-4
0.984,   4.002e-4
0.987,   3.995e-4
0.990,   3.972e-4
0.993,   3.976e-4
0.996,   3.934e-4
0.999,   3.912e-4
1.002,   3.888e-4
1.005,   3.843e-4
1.008,   3.840e-4
1.011,   3.828e-4
1.014,   3.806e-4
1.017,   3.780e-4
1.020,   3.799e-4
1.023,   3.747e-4
1.026,   3.752e-4
1.029,   3.753e-4
1.032,   3.731e-4
1.035,   3.696e-4
1.038,   3.684e-4
1.041,   3.727e-4
1.044,   3.683e-4
1.047,   3.661e-4
1.050,   3.662e-4
1.053,   3.646e-4
1.056,   3.648e-4
1.059,   3.666e-4
1.062,   3.656e-4
1.065,   3.656e-4
1.068,   3.637e-4
1.071,   3.697e-4
1.074,   3.685e-4
1.077,   3.731e-4
1.080,   3.716e-4
1.083,   3.727e-4
1.086,   3.792e-4
1.089,   3.837e-4
1.092,   3.860e-4
1.095,   3.891e-4
1.098,   3.890e-4
1.101,   3.905e-4
1.104,   3.952e-4
1.107,   4.011e-4
1.110,   4.095e-4
1.113,   4.148e-4
1.116,   4.174e-4
1.119,   4.255e-4
1.122,   4.348e-4
1.125,   4.392e-4
1.128,   4.441e-4
1.131,   4.512e-4
1.134,   4.561e-4
1.137,   4.611e-4
1.140,   4.580e-4
1.143,   4.589e-4
1.146,   4.597e-4
1.149,   4.615e-4
1.152,   4.627e-4
1.155,   4.572e-4
1.158,   4.626e-4
1.161,   4.608e-4
1.164,   4.631e-4
1.167,   4.583e-4
1.170,   4.600e-4
1.173,   4.516e-4
1.176,   4.530e-4
1.179,   4.522e-4
1.182,   4.530e-4
1.185,   4.531e-4
1.188,   4.524e-4
1.191,   4.590e-4
1.194,   4.529e-4
1.197,   4.533e-4
1.200,   4.549e-4
1.203,   4.609e-4
1.206,   4.580e-4
1.209,   4.494e-4
1.212,   4.513e-4
1.215,   4.536e-4
1.218,   4.512e-4
1.221,   4.459e-4
1.224,   4.563e-4
1.227,   4.591e-4
1.230,   4.657e-4
1.233,   4.679e-4
1.236,   4.785e-4
1.239,   4.686e-4
1.242,   4.729e-4
1.245,   4.701e-4
1.248,   4.847e-4
1.251,   4.809e-4
1.254,   4.834e-4
1.257,   4.924e-4
1.260,   4.944e-4
1.263,   5.040e-4
1.266,   5.061e-4
1.269,   5.142e-4
1.272,   5.163e-4
1.275,   5.236e-4
1.278,   5.349e-4
1.281,   5.499e-4
1.284,   5.493e-4
1.287,   5.671e-4
1.290,   5.745e-4
1.293,   5.745e-4
1.296,   5.748e-4
1.299,   5.864e-4
1.302,   5.944e-4
1.305,   6.046e-4
1.308,   6.066e-4
1.311,   6.067e-4
1.314,   6.215e-4
1.317,   6.260e-4
1.320,   6.273e-4
1.323,   6.394e-4
1.326,   6.366e-4
1.329,   6.375e-4
1.332,   6.499e-4
1.335,   6.413e-4
1.338,   6.487e-4
1.341,   6.523e-4
1.344,   6.583e-4
1.347,   6.580e-4
1.350,   6.644e-4
1.353,   6.707e-4
1.356,   6.654e-4
1.359,   6.722e-4
1.362,   6.805e-4
1.365,   6.756e-4
1.368,   6.859e-4
1.371,   6.934e-4
1.374,   6.933e-4
1.377,   7.018e-4
1.380,   7.046e-4
1.383,   7.236e-4
1.386,   7.291e-4
1.389,   7.524e-4
1.392,   7.715e-4
1.395,   8.004e-4
1.398,   8.215e-4
1.401,   8.492e-4
1.404,   8.935e-4
1.407,   9.498e-4
1.410,   9.990e-4
1.413,   1.064e-3
1.416,   1.155e-3
1.419,   1.255e-3
1.422,   1.368e-3
1.425,   1.532e-3
1.428,   1.713e-3
1.431,   1.938e-3
1.434,   2.210e-3
1.437,   2.500e-3
1.440,   2.893e-3
1.443,   3.339e-3
1.446,   3.837e-3
1.449,   4.484e-3
1.452,   5.198e-3
1.455,   6.034e-3
1.458,   6.929e-3
1.461,   7.673e-3
1.464,   8.444e-3
1.467,   9.091e-3
1.470,   9.643e-3
1.473,   9.983e-3
1.476,   1.007e-2
1.479,   1.007e-2
1.482,   1.007e-2
1.485,   1.007e-2
1.488,   1.007e-2
1.491,   1.007e-2
1.494,   6.938e-3
1.497,   4.112e-3
1.500,   4.070e-3
1.503,   5.089e-3
1.506,   1.004e-2
1.509,   1.007e-2
1.512,   1.007e-2
1.515,   1.007e-2
1.516,   6.331e-3

File: B5_BEST_400_#1_Full(#15)-223mV.txt
May 30, 2023   19:55:59
Linear Sweep Voltammetry
File: d:\current work\al_oer\electrochemical test data\batch 5\400\B5_BEST_400_#1_Full(#15)-223mV.txt
Data Source:  Experiment
Instrument Model:  CHI660E
Header:
Note:

Init E (V) = 0.900

Final E (V) = 1.511

Scan Rate (V/s) = 0.010
Sample Interval (V) = 0.001
Quiet Time (sec) = 2
Sensitivity (A/V) = 0.001
Comp R (ohm) = 6.5

Results:

Channel 1:
Ep = 1.487V
ip = 4.545e-3A
Ah = 1.546e-2C

Potential/V, Current/A
0.900,   1.432e-4
0.903,   1.388e-4
0.906,   1.301e-4
0.909,   1.219e-4
0.912,   1.143e-4
0.915,   1.083e-4
0.918,   1.026e-4
0.921,   9.778e-5
0.924,   9.362e-5
0.927,   9.021e-5
0.930,   8.701e-5
0.933,   8.424e-5
0.936,   8.169e-5
0.939,   7.913e-5
0.942,   7.688e-5
0.945,   7.501e-5
0.948,   7.278e-5
0.951,   7.180e-5
0.954,   7.007e-5
0.957,   6.880e-5
0.960,   6.797e-5
0.963,   6.676e-5
0.966,   6.535e-5
0.969,   6.459e-5
0.972,   6.324e-5
0.975,   6.257e-5
0.978,   6.175e-5
0.981,   6.052e-5
0.984,   5.983e-5
0.987,   5.946e-5
0.990,   5.898e-5
0.993,   5.850e-5
0.996,   5.781e-5
0.999,   5.753e-5
1.002,   5.731e-5
1.005,   5.656e-5
1.008,   5.609e-5
1.011,   5.575e-5
1.014,   5.545e-5
1.017,   5.525e-5
1.020,   5.523e-5
1.023,   5.490e-5
1.026,   5.436e-5
1.029,   5.418e-5
1.032,   5.407e-5
1.035,   5.377e-5
1.038,   5.364e-5
1.041,   5.340e-5
1.044,   5.340e-5
1.047,   5.360e-5
1.050,   5.382e-5
1.053,   5.307e-5
1.056,   5.323e-5
1.059,   5.305e-5
1.062,   5.288e-5
1.065,   5.315e-5
1.068,   5.289e-5
1.071,   5.303e-5
1.074,   5.327e-5
1.077,   5.322e-5
1.080,   5.295e-5
1.083,   5.322e-5
1.086,   5.310e-5
1.089,   5.327e-5
1.092,   5.348e-5
1.095,   5.366e-5
1.098,   5.398e-5
1.101,   5.411e-5
1.104,   5.421e-5
1.107,   5.426e-5
1.110,   5.470e-5
1.113,   5.508e-5
1.116,   5.519e-5
1.119,   5.524e-5
1.122,   5.555e-5
1.125,   5.588e-5
1.128,   5.583e-5
1.131,   5.695e-5
1.134,   5.712e-5
1.137,   5.683e-5
1.140,   5.714e-5
1.143,   5.786e-5
1.146,   5.795e-5
1.149,   5.827e-5
1.152,   5.914e-5
1.155,   5.909e-5
1.158,   5.936e-5
1.161,   5.984e-5
1.164,   6.052e-5
1.167,   6.065e-5
1.170,   6.113e-5
1.173,   6.138e-5
1.176,   6.191e-5
1.179,   6.232e-5
1.182,   6.267e-5
1.185,   6.320e-5
1.188,   6.404e-5
1.191,   6.455e-5
1.194,   6.491e-5
1.197,   6.493e-5
1.200,   6.572e-5
1.203,   6.660e-5
1.206,   6.692e-5
1.209,   6.784e-5
1.212,   6.875e-5
1.215,   6.893e-5
1.218,   7.006e-5
1.221,   7.041e-5
1.224,   7.111e-5
1.227,   7.173e-5
1.230,   7.271e-5
1.233,   7.401e-5
1.236,   7.490e-5
1.239,   7.484e-5
1.242,   7.621e-5
1.245,   7.814e-5
1.248,   7.799e-5
1.251,   7.882e-5
1.254,   7.986e-5
1.257,   8.115e-5
1.260,   8.180e-5
1.263,   8.293e-5
1.266,   8.387e-5
1.269,   8.564e-5
1.272,   8.643e-5
1.275,   8.768e-5
1.278,   8.922e-5
1.281,   9.048e-5
1.284,   9.105e-5
1.287,   9.266e-5
1.290,   9.470e-5
1.293,   9.545e-5
1.296,   9.730e-5
1.299,   9.845e-5
1.302,   1.002e-4
1.305,   1.016e-4
1.308,   1.030e-4
1.311,   1.052e-4
1.314,   1.067e-4
1.317,   1.080e-4
1.320,   1.104e-4
1.323,   1.127e-4
1.326,   1.146e-4
1.329,   1.171e-4
1.332,   1.194e-4
1.335,   1.216e-4
1.338,   1.245e-4
1.341,   1.263e-4
1.344,   1.293e-4
1.347,   1.316e-4
1.350,   1.357e-4
1.353,   1.378e-4
1.356,   1.417e-4
1.359,   1.456e-4
1.362,   1.489e-4
1.365,   1.531e-4
1.368,   1.569e-4
1.371,   1.608e-4
1.374,   1.666e-4
1.377,   1.728e-4
1.380,   1.792e-4
1.383,   1.867e-4
1.386,   1.937e-4
1.389,   2.029e-4
1.392,   2.120e-4
1.395,   2.232e-4
1.398,   2.347e-4
1.401,   2.488e-4
1.404,   2.652e-4
1.407,   2.839e-4
1.410,   3.074e-4
1.413,   3.341e-4
1.416,   3.670e-4
1.419,   4.062e-4
1.422,   4.537e-4
1.425,   5.077e-4
1.428,   5.743e-4
1.431,   6.545e-4
1.434,   7.478e-4
1.437,   8.630e-4
1.440,   9.987e-4
1.443,   1.162e-3
1.446,   1.348e-3
1.449,   1.571e-3
1.452,   1.814e-3
1.455,   2.090e-3
1.458,   2.406e-3
1.461,   2.743e-3
1.464,   3.092e-3
1.467,   3.442e-3
1.470,   3.773e-3
1.473,   4.066e-3
1.476,   4.322e-3
1.479,   4.522e-3
1.482,   4.604e-3
1.485,   4.671e-3
1.488,   4.670e-3
1.491,   4.629e-3
1.494,   4.512e-3
1.497,   4.424e-3
1.500,   4.297e-3
1.503,   4.189e-3
1.506,   4.112e-3
1.509,   4.029e-3
1.511,   3.980e-3

File: B5_BEST_400_#1_Full(#16)-225mV.txt
May 31, 2023   16:29:26
Linear Sweep Voltammetry
File: d:\current work\al_oer\electrochemical test data\batch 5\400\B5_BEST_400_#1_Full(#16)-225mV.txt
Data Source:  Experiment
Instrument Model:  CHI660E
Header:
Note:

Init E (V) = 0.901

Final E (V) = 1.530

Scan Rate (V/s) = 0.010
Sample Interval (V) = 0.001
Quiet Time (sec) = 2
Sensitivity (A/V) = 0.001
Comp R (ohm) = 6.0

Results:

Channel 1:

Potential/V, Current/A
0.901,   1.822e-4
0.904,   2.112e-4
0.907,   2.100e-4
0.910,   2.090e-4
0.913,   2.052e-4
0.916,   2.012e-4
0.919,   2.005e-4
0.922,   1.956e-4
0.925,   1.944e-4
0.928,   1.913e-4
0.931,   1.881e-4
0.934,   1.871e-4
0.937,   1.842e-4
0.940,   1.824e-4
0.943,   1.810e-4
0.946,   1.787e-4
0.949,   1.787e-4
0.952,   1.755e-4
0.955,   1.742e-4
0.958,   1.733e-4
0.961,   1.707e-4
0.964,   1.711e-4
0.967,   1.692e-4
0.970,   1.677e-4
0.973,   1.678e-4
0.976,   1.663e-4
0.979,   1.652e-4
0.982,   1.645e-4
0.985,   1.633e-4
0.988,   1.628e-4
0.991,   1.620e-4
0.994,   1.605e-4
0.997,   1.614e-4
1.000,   1.593e-4
1.003,   1.593e-4
1.006,   1.587e-4
1.009,   1.563e-4
1.012,   1.586e-4
1.015,   1.561e-4
1.018,   1.568e-4
1.021,   1.566e-4
1.024,   1.551e-4
1.027,   1.558e-4
1.030,   1.552e-4
1.033,   1.553e-4
1.036,   1.564e-4
1.039,   1.536e-4
1.042,   1.548e-4
1.045,   1.550e-4
1.048,   1.541e-4
1.051,   1.563e-4
1.054,   1.543e-4
1.057,   1.541e-4
1.060,   1.554e-4
1.063,   1.554e-4
1.066,   1.558e-4
1.069,   1.544e-4
1.072,   1.539e-4
1.075,   1.546e-4
1.078,   1.537e-4
1.081,   1.553e-4
1.084,   1.549e-4
1.087,   1.544e-4
1.090,   1.561e-4
1.093,   1.555e-4
1.096,   1.565e-4
1.099,   1.572e-4
1.102,   1.567e-4
1.105,   1.587e-4
1.108,   1.572e-4
1.111,   1.571e-4
1.114,   1.598e-4
1.117,   1.584e-4
1.120,   1.606e-4
1.123,   1.609e-4
1.126,   1.599e-4
1.129,   1.623e-4
1.132,   1.620e-4
1.135,   1.624e-4
1.138,   1.642e-4
1.141,   1.640e-4
1.144,   1.657e-4
1.147,   1.649e-4
1.150,   1.650e-4
1.153,   1.678e-4
1.156,   1.664e-4
1.159,   1.685e-4
1.162,   1.692e-4
1.165,   1.684e-4
1.168,   1.708e-4
1.171,   1.715e-4
1.174,   1.704e-4
1.177,   1.726e-4
1.180,   1.725e-4
1.183,   1.748e-4
1.186,   1.761e-4
1.189,   1.748e-4
1.192,   1.788e-4
1.195,   1.786e-4
1.198,   1.791e-4
1.201,   1.817e-4
1.204,   1.798e-4
1.207,   1.826e-4
1.210,   1.840e-4
1.213,   1.833e-4
1.216,   1.876e-4
1.219,   1.869e-4
1.222,   1.884e-4
1.225,   1.910e-4
1.228,   1.899e-4
1.231,   1.938e-4
1.234,   1.939e-4
1.237,   1.950e-4
1.240,   1.977e-4
1.243,   1.977e-4
1.246,   2.000e-4
1.249,   2.016e-4
1.252,   2.008e-4
1.255,   2.057e-4
1.258,   2.047e-4
1.261,   2.078e-4
1.264,   2.093e-4
1.267,   2.090e-4
1.270,   2.132e-4
1.273,   2.136e-4
1.276,   2.145e-4
1.279,   2.187e-4
1.282,   2.187e-4
1.285,   2.219e-4
1.288,   2.246e-4
1.291,   2.232e-4
1.294,   2.295e-4
1.297,   2.285e-4
1.300,   2.301e-4
1.303,   2.352e-4
1.306,   2.336e-4
1.309,   2.398e-4
1.312,   2.408e-4
1.315,   2.408e-4
1.318,   2.478e-4
1.321,   2.465e-4
1.324,   2.527e-4
1.327,   2.552e-4
1.330,   2.546e-4
1.333,   2.627e-4
1.336,   2.617e-4
1.339,   2.655e-4
1.342,   2.724e-4
1.345,   2.709e-4
1.348,   2.798e-4
1.351,   2.822e-4
1.354,   2.840e-4
1.357,   2.937e-4
1.360,   2.947e-4
1.363,   3.005e-4
1.366,   3.076e-4
1.369,   3.091e-4
1.372,   3.232e-4
1.375,   3.233e-4
1.378,   3.306e-4
1.381,   3.429e-4
1.384,   3.464e-4
1.387,   3.616e-4
1.390,   3.695e-4
1.393,   3.756e-4
1.396,   3.962e-4
1.399,   4.052e-4
1.402,   4.208e-4
1.405,   4.432e-4
1.408,   4.602e-4
1.411,   4.921e-4
1.414,   5.131e-4
1.417,   5.398e-4
1.420,   5.890e-4
1.423,   6.222e-4
1.426,   6.819e-4
1.429,   7.493e-4
1.432,   8.101e-4
1.435,   9.074e-4
1.438,   9.935e-4
1.441,   1.112e-3
1.444,   1.257e-3
1.447,   1.389e-3
1.450,   1.582e-3
1.453,   1.777e-3
1.456,   1.971e-3
1.459,   2.245e-3
1.462,   2.474e-3
1.465,   2.787e-3
1.468,   3.135e-3
1.471,   3.428e-3
1.474,   3.836e-3
1.477,   4.222e-3
1.480,   4.550e-3
1.483,   5.059e-3
1.486,   5.425e-3
1.489,   5.873e-3
1.492,   6.340e-3
1.495,   6.573e-3
1.498,   7.110e-3
1.501,   7.500e-3
1.504,   7.802e-3
1.507,   8.254e-3
1.510,   8.294e-3
1.513,   8.741e-3
1.516,   9.013e-3
1.519,   9.075e-3
1.522,   9.245e-3
1.525,   9.230e-3
1.528,   9.354e-3
1.530,   9.487e-3

File: B5_BEST_400_#1_High_Quality(#20)-214mV.txt
May 30, 2023   20:07:09
Linear Sweep Voltammetry
File: d:\current work\al_oer\electrochemical test data\batch 5\400\B5_BEST_400_#1_High_Quality(#20)-214mV.txt
Data Source:  Experiment
Instrument Model:  CHI660E
Header:
Note:

Init E (V) = 0.900

Final E (V) = 1.531

Scan Rate (V/s) = 0.010
Sample Interval (V) = 0.001
Quiet Time (sec) = 2
Sensitivity (A/V) = 0.001
Comp R (ohm) = 6.8

Results:

Channel 1:

Potential/V, Current/A
0.900,   1.253e-3
0.903,   1.113e-3
0.906,   9.735e-4
0.909,   8.622e-4
0.912,   7.726e-4
0.915,   7.014e-4
0.918,   6.431e-4
0.921,   5.958e-4
0.924,   5.567e-4
0.927,   5.232e-4
0.930,   4.968e-4
0.933,   4.731e-4
0.936,   4.536e-4
0.939,   4.383e-4
0.942,   4.236e-4
0.945,   4.101e-4
0.948,   3.981e-4
0.951,   3.878e-4
0.954,   3.790e-4
0.957,   3.722e-4
0.960,   3.638e-4
0.963,   3.593e-4
0.966,   3.544e-4
0.969,   3.496e-4
0.972,   3.437e-4
0.975,   3.401e-4
0.978,   3.365e-4
0.981,   3.327e-4
0.984,   3.289e-4
0.987,   3.264e-4
0.990,   3.262e-4
0.993,   3.226e-4
0.996,   3.201e-4
0.999,   3.180e-4
1.002,   3.174e-4
1.005,   3.160e-4
1.008,   3.154e-4
1.011,   3.132e-4
1.014,   3.134e-4
1.017,   3.142e-4
1.020,   3.133e-4
1.023,   3.130e-4
1.026,   3.131e-4
1.029,   3.135e-4
1.032,   3.120e-4
1.035,   3.106e-4
1.038,   3.109e-4
1.041,   3.119e-4
1.044,   3.131e-4
1.047,   3.118e-4
1.050,   3.120e-4
1.053,   3.130e-4
1.056,   3.131e-4
1.059,   3.128e-4
1.062,   3.134e-4
1.065,   3.135e-4
1.068,   3.164e-4
1.071,   3.161e-4
1.074,   3.191e-4
1.077,   3.177e-4
1.080,   3.187e-4
1.083,   3.214e-4
1.086,   3.230e-4
1.089,   3.243e-4
1.092,   3.272e-4
1.095,   3.290e-4
1.098,   3.308e-4
1.101,   3.303e-4
1.104,   3.318e-4
1.107,   3.341e-4
1.110,   3.358e-4
1.113,   3.371e-4
1.116,   3.368e-4
1.119,   3.385e-4
1.122,   3.424e-4
1.125,   3.401e-4
1.128,   3.405e-4
1.131,   3.429e-4
1.134,   3.423e-4
1.137,   3.415e-4
1.140,   3.430e-4
1.143,   3.451e-4
1.146,   3.462e-4
1.149,   3.470e-4
1.152,   3.494e-4
1.155,   3.518e-4
1.158,   3.535e-4
1.161,   3.538e-4
1.164,   3.563e-4
1.167,   3.587e-4
1.170,   3.607e-4
1.173,   3.610e-4
1.176,   3.636e-4
1.179,   3.667e-4
1.182,   3.681e-4
1.185,   3.714e-4
1.188,   3.722e-4
1.191,   3.771e-4
1.194,   3.796e-4
1.197,   3.833e-4
1.200,   3.861e-4
1.203,   3.881e-4
1.206,   3.917e-4
1.209,   3.956e-4
1.212,   3.975e-4
1.215,   4.013e-4
1.218,   4.015e-4
1.221,   4.048e-4
1.224,   4.081e-4
1.227,   4.127e-4
1.230,   4.173e-4
1.233,   4.174e-4
1.236,   4.231e-4
1.239,   4.268e-4
1.242,   4.295e-4
1.245,   4.343e-4
1.248,   4.367e-4
1.251,   4.424e-4
1.254,   4.438e-4
1.257,   4.479e-4
1.260,   4.526e-4
1.263,   4.560e-4
1.266,   4.608e-4
1.269,   4.666e-4
1.272,   4.696e-4
1.275,   4.753e-4
1.278,   4.774e-4
1.281,   4.809e-4
1.284,   4.877e-4
1.287,   4.906e-4
1.290,   4.914e-4
1.293,   4.989e-4
1.296,   5.007e-4
1.299,   5.067e-4
1.302,   5.103e-4
1.305,   5.141e-4
1.308,   5.209e-4
1.311,   5.271e-4
1.314,   5.322e-4
1.317,   5.375e-4
1.320,   5.439e-4
1.323,   5.482e-4
1.326,   5.567e-4
1.329,   5.677e-4
1.332,   5.742e-4
1.335,   5.798e-4
1.338,   5.895e-4
1.341,   5.956e-4
1.344,   6.072e-4
1.347,   6.134e-4
1.350,   6.219e-4
1.353,   6.314e-4
1.356,   6.409e-4
1.359,   6.549e-4
1.362,   6.618e-4
1.365,   6.718e-4
1.368,   6.831e-4
1.371,   6.942e-4
1.374,   7.081e-4
1.377,   7.192e-4
1.380,   7.342e-4
1.383,   7.506e-4
1.386,   7.676e-4
1.389,   7.822e-4
1.392,   7.986e-4
1.395,   8.219e-4
1.398,   8.473e-4
1.401,   8.700e-4
1.404,   8.979e-4
1.407,   9.288e-4
1.410,   9.626e-4
1.413,   1.002e-3
1.416,   1.044e-3
1.419,   1.098e-3
1.422,   1.155e-3
1.425,   1.223e-3
1.428,   1.298e-3
1.431,   1.380e-3
1.434,   1.480e-3
1.437,   1.593e-3
1.440,   1.706e-3
1.443,   1.853e-3
1.446,   2.019e-3
1.449,   2.195e-3
1.452,   2.404e-3
1.455,   2.615e-3
1.458,   2.857e-3
1.461,   3.111e-3
1.464,   3.383e-3
1.467,   3.698e-3
1.470,   4.017e-3
1.473,   4.363e-3
1.476,   4.744e-3
1.479,   5.130e-3
1.482,   5.499e-3
1.485,   5.943e-3
1.488,   6.392e-3
1.491,   6.866e-3
1.494,   7.326e-3
1.497,   7.835e-3
1.500,   8.310e-3
1.503,   8.853e-3
1.506,   9.334e-3
1.509,   9.752e-3
1.512,   9.974e-3
1.515,   1.006e-2
1.518,   1.007e-2
1.521,   1.007e-2
1.524,   1.007e-2
1.527,   1.007e-2
1.530,   1.007e-2
1.531,   1.007e-2

File: B5_BEST_400_#1_High_Quality(#21)-245mV.txt
May 31, 2023   15:53:30
Linear Sweep Voltammetry
File: d:\current work\al_oer\electrochemical test data\batch 5\400\B5_BEST_400_#1_High_Quality(#21)-245mV.txt
Data Source:  Experiment
Instrument Model:  CHI660E
Header:
Note:

Init E (V) = 0.901

Final E (V) = 1.570

Scan Rate (V/s) = 0.010
Sample Interval (V) = 0.001
Quiet Time (sec) = 2
Sensitivity (A/V) = 0.001
Comp R (ohm) = 6.3

Results:

Channel 1:

Potential/V, Current/A
0.901,   1.463e-4
0.904,   1.627e-4
0.907,   1.591e-4
0.910,   1.574e-4
0.913,   1.533e-4
0.916,   1.514e-4
0.919,   1.479e-4
0.922,   1.459e-4
0.925,   1.431e-4
0.928,   1.402e-4
0.931,   1.385e-4
0.934,   1.364e-4
0.937,   1.346e-4
0.940,   1.328e-4
0.943,   1.313e-4
0.946,   1.301e-4
0.949,   1.283e-4
0.952,   1.264e-4
0.955,   1.257e-4
0.958,   1.241e-4
0.961,   1.233e-4
0.964,   1.215e-4
0.967,   1.211e-4
0.970,   1.193e-4
0.973,   1.192e-4
0.976,   1.172e-4
0.979,   1.173e-4
0.982,   1.162e-4
0.985,   1.155e-4
0.988,   1.142e-4
0.991,   1.140e-4
0.994,   1.126e-4
0.997,   1.129e-4
1.000,   1.118e-4
1.003,   1.117e-4
1.006,   1.108e-4
1.009,   1.106e-4
1.012,   1.099e-4
1.015,   1.097e-4
1.018,   1.096e-4
1.021,   1.091e-4
1.024,   1.093e-4
1.027,   1.080e-4
1.030,   1.083e-4
1.033,   1.073e-4
1.036,   1.080e-4
1.039,   1.069e-4
1.042,   1.082e-4
1.045,   1.066e-4
1.048,   1.079e-4
1.051,   1.063e-4
1.054,   1.081e-4
1.057,   1.063e-4
1.060,   1.080e-4
1.063,   1.067e-4
1.066,   1.077e-4
1.069,   1.066e-4
1.072,   1.077e-4
1.075,   1.070e-4
1.078,   1.080e-4
1.081,   1.076e-4
1.084,   1.081e-4
1.087,   1.083e-4
1.090,   1.086e-4
1.093,   1.091e-4
1.096,   1.091e-4
1.099,   1.099e-4
1.102,   1.093e-4
1.105,   1.103e-4
1.108,   1.089e-4
1.111,   1.116e-4
1.114,   1.103e-4
1.117,   1.130e-4
1.120,   1.120e-4
1.123,   1.137e-4
1.126,   1.122e-4
1.129,   1.144e-4
1.132,   1.137e-4
1.135,   1.154e-4
1.138,   1.152e-4
1.141,   1.168e-4
1.144,   1.168e-4
1.147,   1.180e-4
1.150,   1.180e-4
1.153,   1.190e-4
1.156,   1.194e-4
1.159,   1.203e-4
1.162,   1.212e-4
1.165,   1.213e-4
1.168,   1.224e-4
1.171,   1.226e-4
1.174,   1.237e-4
1.177,   1.232e-4
1.180,   1.252e-4
1.183,   1.242e-4
1.186,   1.260e-4
1.189,   1.254e-4
1.192,   1.274e-4
1.195,   1.263e-4
1.198,   1.284e-4
1.201,   1.274e-4
1.204,   1.294e-4
1.207,   1.288e-4
1.210,   1.310e-4
1.213,   1.310e-4
1.216,   1.315e-4
1.219,   1.306e-4
1.222,   1.320e-4
1.225,   1.329e-4
1.228,   1.339e-4
1.231,   1.339e-4
1.234,   1.333e-4
1.237,   1.352e-4
1.240,   1.344e-4
1.243,   1.364e-4
1.246,   1.348e-4
1.249,   1.369e-4
1.252,   1.355e-4
1.255,   1.380e-4
1.258,   1.362e-4
1.261,   1.386e-4
1.264,   1.374e-4
1.267,   1.386e-4
1.270,   1.386e-4
1.273,   1.397e-4
1.276,   1.390e-4
1.279,   1.413e-4
1.282,   1.404e-4
1.285,   1.412e-4
1.288,   1.412e-4
1.291,   1.425e-4
1.294,   1.426e-4
1.297,   1.427e-4
1.300,   1.439e-4
1.303,   1.424e-4
1.306,   1.456e-4
1.309,   1.441e-4
1.312,   1.468e-4
1.315,   1.454e-4
1.318,   1.475e-4
1.321,   1.459e-4
1.324,   1.483e-4
1.327,   1.480e-4
1.330,   1.508e-4
1.333,   1.504e-4
1.336,   1.524e-4
1.339,   1.520e-4
1.342,   1.536e-4
1.345,   1.540e-4
1.348,   1.563e-4
1.351,   1.568e-4
1.354,   1.594e-4
1.357,   1.602e-4
1.360,   1.625e-4
1.363,   1.640e-4
1.366,   1.658e-4
1.369,   1.678e-4
1.372,   1.701e-4
1.375,   1.730e-4
1.378,   1.742e-4
1.381,   1.782e-4
1.384,   1.813e-4
1.387,   1.870e-4
1.390,   1.886e-4
1.393,   1.949e-4
1.396,   1.975e-4
1.399,   2.057e-4
1.402,   2.094e-4
1.405,   2.200e-4
1.408,   2.257e-4
1.411,   2.388e-4
1.414,   2.473e-4
1.417,   2.638e-4
1.420,   2.774e-4
1.423,   2.994e-4
1.426,   3.194e-4
1.429,   3.466e-4
1.432,   3.782e-4
1.435,   4.140e-4
1.438,   4.603e-4
1.441,   5.053e-4
1.444,   5.707e-4
1.447,   6.311e-4
1.450,   7.190e-4
1.453,   7.947e-4
1.456,   9.130e-4
1.459,   1.010e-3
1.462,   1.161e-3
1.465,   1.281e-3
1.468,   1.467e-3
1.471,   1.618e-3
1.474,   1.847e-3
1.477,   2.029e-3
1.480,   2.293e-3
1.483,   2.511e-3
1.486,   2.791e-3
1.489,   3.071e-3
1.492,   3.384e-3
1.495,   3.708e-3
1.498,   3.993e-3
1.501,   4.365e-3
1.504,   4.682e-3
1.507,   5.104e-3
1.510,   5.430e-3
1.513,   5.913e-3
1.516,   6.247e-3
1.519,   6.751e-3
1.522,   7.006e-3
1.525,   7.512e-3
1.528,   7.760e-3
1.531,   8.243e-3
1.534,   8.415e-3
1.537,   8.909e-3
1.540,   9.074e-3
1.543,   9.535e-3
1.546,   9.612e-3
1.549,   9.877e-3
1.552,   1.000e-2
1.555,   1.007e-2
1.558,   1.007e-2
1.561,   1.007e-2
1.564,   1.007e-2
1.567,   1.007e-2
1.570,   1.007e-2

File: B5_BEST_400_#1_High_Quality(#22)-206mV.txt
May 30, 2023   20:23:51
Linear Sweep Voltammetry
File: d:\current work\al_oer\electrochemical test data\batch 5\400\B5_BEST_400_#1_High_Quality(#22)-206mV.txt
Data Source:  Experiment
Instrument Model:  CHI660E
Header:
Note:

Init E (V) = 0.901

Final E (V) = 1.511

Scan Rate (V/s) = 0.010
Sample Interval (V) = 0.001
Quiet Time (sec) = 2
Sensitivity (A/V) = 0.001

Results:

Channel 1:

Potential/V, Current/A
0.901,   -7.775e-5
0.904,   5.937e-5
0.907,   8.586e-5
0.910,   1.005e-4
0.913,   1.109e-4
0.916,   1.184e-4
0.919,   1.266e-4
0.922,   1.324e-4
0.925,   1.357e-4
0.928,   1.397e-4
0.931,   1.421e-4
0.934,   1.452e-4
0.937,   1.479e-4
0.940,   1.505e-4
0.943,   1.522e-4
0.946,   1.547e-4
0.949,   1.565e-4
0.952,   1.584e-4
0.955,   1.607e-4
0.958,   1.612e-4
0.961,   1.623e-4
0.964,   1.636e-4
0.967,   1.660e-4
0.970,   1.663e-4
0.973,   1.662e-4
0.976,   1.684e-4
0.979,   1.699e-4
0.982,   -2.890e-3
0.985,   -1.331e-3
0.988,   -3.900e-4
0.991,   6.650e-4
0.994,   5.104e-4
0.997,   3.981e-4
1.000,   4.304e-4
1.003,   4.557e-4
1.006,   3.492e-4
1.009,   2.076e-4
1.012,   1.812e-4
1.015,   2.275e-4
1.018,   2.000e-4
1.021,   2.083e-4
1.024,   2.589e-4
1.027,   1.673e-4
1.030,   2.521e-4
1.033,   2.099e-4
1.036,   1.418e-4
1.039,   2.064e-4
1.042,   2.028e-4
1.045,   1.917e-4
1.048,   1.726e-4
1.051,   1.654e-4
1.054,   2.629e-4
1.057,   1.472e-4
1.060,   1.835e-4
1.063,   1.889e-4
1.066,   2.914e-4
1.069,   2.556e-4
1.072,   2.486e-4
1.075,   2.054e-4
1.078,   2.200e-4
1.081,   1.522e-4
1.084,   2.123e-4
1.087,   1.901e-4
1.090,   1.936e-4
1.093,   2.009e-4
1.096,   2.215e-4
1.099,   2.001e-4
1.102,   1.866e-4
1.105,   2.466e-4
1.108,   2.120e-4
1.111,   1.703e-4
1.114,   2.040e-4
1.117,   2.348e-4
1.120,   2.988e-4
1.123,   2.163e-4
1.126,   2.391e-4
1.129,   2.336e-4
1.132,   2.251e-4
1.135,   2.192e-4
1.138,   2.202e-4
1.141,   2.165e-4
1.144,   2.073e-4
1.147,   2.157e-4
1.150,   1.853e-4
1.153,   3.175e-4
1.156,   2.185e-4
1.159,   2.214e-4
1.162,   1.756e-4
1.165,   1.510e-4
1.168,   2.944e-4
1.171,   2.666e-4
1.174,   1.422e-4
1.177,   2.036e-4
1.180,   2.238e-4
1.183,   2.324e-4
1.186,   2.207e-4
1.189,   2.705e-4
1.192,   2.682e-4
1.195,   1.857e-4
1.198,   2.465e-4
1.201,   2.225e-4
1.204,   2.480e-4
1.207,   2.248e-4
1.210,   2.136e-4
1.213,   2.583e-4
1.216,   2.114e-4
1.219,   2.395e-4
1.222,   2.056e-4
1.225,   2.146e-4
1.228,   2.327e-4
1.231,   2.123e-4
1.234,   2.276e-4
1.237,   2.302e-4
1.240,   2.309e-4
1.243,   2.344e-4
1.246,   2.335e-4
1.249,   2.401e-4
1.252,   2.553e-4
1.255,   2.392e-4
1.258,   2.378e-4
1.261,   2.354e-4
1.264,   2.352e-4
1.267,   2.362e-4
1.270,   2.352e-4
1.273,   2.230e-4
1.276,   2.336e-4
1.279,   2.495e-4
1.282,   2.359e-4
1.285,   2.480e-4
1.288,   2.524e-4
1.291,   2.547e-4
1.294,   7.415e-4
1.297,   3.272e-4
1.300,   2.625e-4
1.303,   2.534e-4
1.306,   2.522e-4
1.309,   2.516e-4
1.312,   2.521e-4
1.315,   2.510e-4
1.318,   2.516e-4
1.321,   2.545e-4
1.324,   2.565e-4
1.327,   2.587e-4
1.330,   2.618e-4
1.333,   2.634e-4
1.336,   2.650e-4
1.339,   2.701e-4
1.342,   2.715e-4
1.345,   2.753e-4
1.348,   2.794e-4
1.351,   2.838e-4
1.354,   2.890e-4
1.357,   2.933e-4
1.360,   2.989e-4
1.363,   3.050e-4
1.366,   3.120e-4
1.369,   3.206e-4
1.372,   3.289e-4
1.375,   3.393e-4
1.378,   3.511e-4
1.381,   3.662e-4
1.384,   3.827e-4
1.387,   3.991e-4
1.390,   4.219e-4
1.393,   4.476e-4
1.396,   4.788e-4
1.399,   5.106e-4
1.402,   5.542e-4
1.405,   6.037e-4
1.408,   6.624e-4
1.411,   7.317e-4
1.414,   8.117e-4
1.417,   9.058e-4
1.420,   1.015e-3
1.423,   1.136e-3
1.426,   1.280e-3
1.429,   1.435e-3
1.432,   1.616e-3
1.435,   1.812e-3
1.438,   2.021e-3
1.441,   2.252e-3
1.444,   2.498e-3
1.447,   2.754e-3
1.450,   3.025e-3
1.453,   3.318e-3
1.456,   3.614e-3
1.459,   3.901e-3
1.462,   4.220e-3
1.465,   4.558e-3
1.468,   4.891e-3
1.471,   5.256e-3
1.474,   5.622e-3
1.477,   5.981e-3
1.480,   6.355e-3
1.483,   6.719e-3
1.486,   7.105e-3
1.489,   7.469e-3
1.492,   7.848e-3
1.495,   8.257e-3
1.498,   8.650e-3
1.501,   9.055e-3
1.504,   9.473e-3
1.507,   9.853e-3
1.510,   1.007e-2
1.511,   1.007e-2