Folder: DASH/Experimental Records, Raw Data, and Supplementary Notes and Figures/batch1/final500

Note: README.md
# DASH
This is the online repository that stores code, data and supplementary figures of the research work: <Leveraging Data Mining, Active Learning, and Domain Adaptation in a Multi-Stage, Machine Learning-Driven Approach for the Efficient Discovery of Advanced Acidic Oxygen Evolution Electrocatalysts> by Rui Ding et. al. (https://arxiv.org/abs/2407.04877)
![Workflow Schematic](https://github.com/ruiding-uchicago/D.A.S.H./blob/main/Online%20Repository%20Figures/D.A.S.H.%20Workflow.jpg)
## Code Description

Our code is written and uploaded on GitHub in Jupyter notebook file format, which is already very easy to conduct and get results. Our code does not include providing a new python library, but users could track how we train machine learning models in Jupyter ipynb files. Also, we have provided all original dataset CSV files to drive the active learning flow. Additionally, we have detailed the python version and package environment used for this work, focusing on machine learning-related packages.

## Environment
This project was trained using Python version 3.9.12. Below is the list of machine learning-related packages and their versions used in this project on the local machine we used equipped with 2080 Ti GPU, users could install anaconda (https://www.anaconda.com/download) and using pip install to install the packages below for setting environment to run in the Jupyter notebook (https://docs.anaconda.com/ae-notebooks/user-guide/basic-tasks/apps/jupyter/index.html):

absl-py 1.2.0
ase 3.22.1
catboost 1.0.6
cython 0.29.28
dask 2022.2.1
deep-forest 0.1.7
gensim 4.1.2
h5py 3.6.0
keras 2.9.0
Keras-Preprocessing 1.1.2
keras-tcn 3.5.0
lightgbm 3.3.2
matplotlib 3.4.3
numpy 1.23.5
pandas 1.4.2
pytorch-lightning 2.0.1
pymatgen 2023.8.10
scikit-learn 1.0.2
scipy 1.8.0
scikit-opt  0.6.6
scikit-optimize 0.9.0
seaborn 0.11.2
tensorboard                  2.10.1
tensorboard-data-server      0.6.1
tensorboard-plugin-wit       1.8.1
tensorflow-estimator         2.10.0
tensorflow-gpu               2.10.0
tensorflow-io-gcs-filesystem 0.31.0
torch 2.0.0
torchvision 0.15.1
xgboost 1.6.2

File: B1_BEST_500_#8_High_Quality-218mV.txt
Dec. 12, 2022   16:10:45
Linear Sweep Voltammetry
File: d:\current work\al_oer\electrochemical test data\batch 1\500\B1_BEST_500_#8_High_Quality-218mV.txt
Data Source:  Experiment
Instrument Model:  CHI660E
Header:
Note:

Init E (V) = 1.092

Final E (V) = 1.524

Scan Rate (V/s) = 0.010
Sample Interval (V) = 0.001
Quiet Time (sec) = 2
Sensitivity (A/V) = 0.001
Comp R (ohm) = 5.9

Results:

Channel 1:

Potential/V, Current/A
1.092,   1.908e-4
1.094,   1.758e-4
1.096,   1.578e-4
1.098,   1.425e-4
1.100,   1.308e-4
1.102,   1.212e-4
1.104,   1.134e-4
1.106,   1.065e-4
1.108,   1.004e-4
1.110,   9.566e-5
1.112,   9.155e-5
1.114,   8.733e-5
1.116,   8.445e-5
1.118,   8.116e-5
1.120,   7.878e-5
1.122,   7.612e-5
1.124,   7.369e-5
1.126,   7.173e-5
1.128,   6.977e-5
1.130,   6.796e-5
1.132,   6.646e-5
1.134,   6.516e-5
1.136,   6.401e-5
1.138,   6.291e-5
1.140,   6.203e-5
1.142,   6.111e-5
1.144,   6.019e-5
1.146,   5.942e-5
1.148,   5.874e-5
1.150,   5.822e-5
1.152,   5.770e-5
1.154,   5.706e-5
1.156,   5.665e-5
1.158,   5.637e-5
1.160,   5.598e-5
1.162,   5.560e-5
1.164,   5.530e-5
1.166,   5.509e-5
1.168,   5.486e-5
1.170,   5.464e-5
1.172,   5.443e-5
1.174,   5.456e-5
1.176,   5.438e-5
1.178,   5.425e-5
1.180,   5.405e-5
1.182,   5.407e-5
1.184,   5.397e-5
1.186,   5.383e-5
1.188,   5.378e-5
1.190,   5.401e-5
1.192,   5.385e-5
1.194,   5.384e-5
1.196,   5.396e-5
1.198,   5.389e-5
1.200,   5.388e-5
1.202,   5.399e-5
1.204,   5.390e-5
1.206,   5.414e-5
1.208,   5.401e-5
1.210,   5.459e-5
1.212,   5.431e-5
1.214,   5.436e-5
1.216,   5.453e-5
1.218,   5.445e-5
1.220,   5.446e-5
1.222,   5.464e-5
1.224,   5.432e-5
1.226,   5.448e-5
1.228,   5.468e-5
1.230,   5.479e-5
1.232,   5.467e-5
1.234,   5.477e-5
1.236,   5.473e-5
1.238,   5.489e-5
1.240,   5.503e-5
1.242,   5.490e-5
1.244,   5.499e-5
1.246,   5.513e-5
1.248,   5.543e-5
1.250,   5.527e-5
1.252,   5.527e-5
1.254,   5.572e-5
1.256,   5.558e-5
1.258,   5.555e-5
1.260,   5.606e-5
1.262,   5.616e-5
1.264,   5.601e-5
1.266,   5.592e-5
1.268,   5.573e-5
1.270,   5.619e-5
1.272,   5.644e-5
1.274,   5.672e-5
1.276,   5.675e-5
1.278,   5.698e-5
1.280,   5.681e-5
1.282,   5.723e-5
1.284,   5.732e-5
1.286,   5.796e-5
1.288,   5.745e-5
1.290,   5.762e-5
1.292,   5.720e-5
1.294,   5.752e-5
1.296,   5.777e-5
1.298,   5.759e-5
1.300,   5.776e-5
1.302,   5.846e-5
1.304,   5.934e-5
1.306,   5.952e-5
1.308,   5.921e-5
1.310,   5.875e-5
1.312,   5.903e-5
1.314,   6.017e-5
1.316,   6.057e-5
1.318,   6.036e-5
1.320,   6.003e-5
1.322,   6.016e-5
1.324,   6.157e-5
1.326,   6.192e-5
1.328,   6.137e-5
1.330,   6.217e-5
1.332,   6.343e-5
1.334,   6.262e-5
1.336,   6.402e-5
1.338,   6.444e-5
1.340,   6.471e-5
1.342,   6.579e-5
1.344,   6.634e-5
1.346,   6.609e-5
1.348,   6.846e-5
1.350,   6.892e-5
1.352,   6.942e-5
1.354,   7.032e-5
1.356,   7.195e-5
1.358,   7.338e-5
1.360,   7.462e-5
1.362,   7.601e-5
1.364,   7.874e-5
1.366,   8.016e-5
1.368,   8.299e-5
1.370,   8.537e-5
1.372,   8.763e-5
1.374,   9.386e-5
1.376,   9.545e-5
1.378,   9.833e-5
1.380,   1.038e-4
1.382,   1.105e-4
1.384,   1.203e-4
1.386,   1.289e-4
1.388,   1.353e-4
1.390,   1.449e-4
1.392,   1.610e-4
1.394,   1.752e-4
1.396,   1.883e-4
1.398,   2.028e-4
1.400,   2.253e-4
1.402,   2.458e-4
1.404,   2.725e-4
1.406,   2.986e-4
1.408,   3.294e-4
1.410,   3.628e-4
1.412,   3.992e-4
1.414,   4.422e-4
1.416,   4.847e-4
1.418,   5.375e-4
1.420,   5.881e-4
1.422,   6.430e-4
1.424,   7.061e-4
1.426,   7.734e-4
1.428,   8.495e-4
1.430,   9.276e-4
1.432,   1.006e-3
1.434,   1.097e-3
1.436,   1.187e-3
1.438,   1.289e-3
1.440,   1.395e-3
1.442,   1.506e-3
1.444,   1.637e-3
1.446,   1.773e-3
1.448,   1.910e-3
1.450,   2.065e-3
1.452,   2.234e-3
1.454,   2.412e-3
1.456,   2.603e-3
1.458,   2.807e-3
1.460,   3.018e-3
1.462,   3.239e-3
1.464,   3.477e-3
1.466,   3.714e-3
1.468,   3.917e-3
1.470,   4.135e-3
1.472,   4.611e-3
1.474,   4.926e-3
1.476,   5.147e-3
1.478,   5.427e-3
1.480,   5.761e-3
1.482,   6.092e-3
1.484,   6.487e-3
1.486,   6.831e-3
1.488,   7.149e-3
1.490,   7.599e-3
1.492,   8.170e-3
1.494,   8.444e-3
1.496,   8.690e-3
1.498,   9.350e-3
1.500,   1.003e-2
1.502,   1.006e-2
1.504,   1.006e-2
1.506,   1.006e-2
1.508,   1.006e-2
1.510,   1.006e-2
1.512,   1.006e-2
1.514,   1.006e-2
1.516,   1.006e-2
1.518,   1.006e-2
1.520,   1.006e-2
1.522,   1.006e-2
1.524,   1.006e-2

File: B1_BEST_500_#9_Full-343mV.txt
Dec. 14, 2022   15:41:48
Linear Sweep Voltammetry
File: d:\current work\al_oer\electrochemical test data\batch 1\500\B1_BEST_500_#9_Full-343mV.txt
Data Source:  Experiment
Instrument Model:  CHI660E
Header:
Note:

Init E (V) = 1.116

Final E (V) = 1.815

Scan Rate (V/s) = 0.010
Sample Interval (V) = 0.001
Quiet Time (sec) = 2
Sensitivity (A/V) = 0.001
Comp R (ohm) = 5.2

Results:

Channel 1:

Potential/V, Current/A
1.116,   3.268e-5
1.119,   2.795e-5
1.122,   2.381e-5
1.125,   2.091e-5
1.128,   1.869e-5
1.131,   1.703e-5
1.134,   1.571e-5
1.137,   1.466e-5
1.140,   1.378e-5
1.143,   1.312e-5
1.146,   1.254e-5
1.149,   1.208e-5
1.152,   1.165e-5
1.155,   1.130e-5
1.158,   1.106e-5
1.161,   1.079e-5
1.164,   1.060e-5
1.167,   1.045e-5
1.170,   1.034e-5
1.173,   1.019e-5
1.176,   1.015e-5
1.179,   1.011e-5
1.182,   1.008e-5
1.185,   1.000e-5
1.188,   9.973e-6
1.191,   9.955e-6
1.194,   9.994e-6
1.197,   1.003e-5
1.200,   1.009e-5
1.203,   1.013e-5
1.206,   1.015e-5
1.209,   1.022e-5
1.212,   1.025e-5
1.215,   1.032e-5
1.218,   1.039e-5
1.221,   1.049e-5
1.224,   1.056e-5
1.227,   1.068e-5
1.230,   1.072e-5
1.233,   1.082e-5
1.236,   1.091e-5
1.239,   1.095e-5
1.242,   1.105e-5
1.245,   1.112e-5
1.248,   1.120e-5
1.251,   1.130e-5
1.254,   1.134e-5
1.257,   1.139e-5
1.260,   1.144e-5
1.263,   1.153e-5
1.266,   1.157e-5
1.269,   1.164e-5
1.272,   1.171e-5
1.275,   1.176e-5
1.278,   1.180e-5
1.281,   1.187e-5
1.284,   1.189e-5
1.287,   1.195e-5
1.290,   1.200e-5
1.293,   1.206e-5
1.296,   1.209e-5
1.299,   1.218e-5
1.302,   1.223e-5
1.305,   1.226e-5
1.308,   1.234e-5
1.311,   1.240e-5
1.314,   1.245e-5
1.317,   1.254e-5
1.320,   1.263e-5
1.323,   1.268e-5
1.326,   1.277e-5
1.329,   1.287e-5
1.332,   1.295e-5
1.335,   1.307e-5
1.338,   1.313e-5
1.341,   1.326e-5
1.344,   1.339e-5
1.347,   1.352e-5
1.350,   1.360e-5
1.353,   1.372e-5
1.356,   1.382e-5
1.359,   1.396e-5
1.362,   1.409e-5
1.365,   1.428e-5
1.368,   1.439e-5
1.371,   1.461e-5
1.374,   1.469e-5
1.377,   1.487e-5
1.380,   1.506e-5
1.383,   1.523e-5
1.386,   1.549e-5
1.389,   1.574e-5
1.392,   1.603e-5
1.395,   1.635e-5
1.398,   1.669e-5
1.401,   1.710e-5
1.404,   1.756e-5
1.407,   1.815e-5
1.410,   1.874e-5
1.413,   1.956e-5
1.416,   2.047e-5
1.419,   2.152e-5
1.422,   2.281e-5
1.425,   2.425e-5
1.428,   2.599e-5
1.431,   2.804e-5
1.434,   3.036e-5
1.437,   3.314e-5
1.440,   3.639e-5
1.443,   3.997e-5
1.446,   4.429e-5
1.449,   4.927e-5
1.452,   5.498e-5
1.455,   6.141e-5
1.458,   6.892e-5
1.461,   7.755e-5
1.464,   8.723e-5
1.467,   9.819e-5
1.470,   1.106e-4
1.473,   1.246e-4
1.476,   1.403e-4
1.479,   1.581e-4
1.482,   1.779e-4
1.485,   1.999e-4
1.488,   2.244e-4
1.491,   2.518e-4
1.494,   2.819e-4
1.497,   3.152e-4
1.500,   3.518e-4
1.503,   3.917e-4
1.506,   4.352e-4
1.509,   4.826e-4
1.512,   5.330e-4
1.515,   5.868e-4
1.518,   6.438e-4
1.521,   7.041e-4
1.524,   7.669e-4
1.527,   8.322e-4
1.530,   9.001e-4
1.533,   9.689e-4
1.536,   1.040e-3
1.539,   1.112e-3
1.542,   1.185e-3
1.545,   1.259e-3
1.548,   1.333e-3
1.551,   1.406e-3
1.554,   1.480e-3
1.557,   1.554e-3
1.560,   1.627e-3
1.563,   1.700e-3
1.566,   1.772e-3
1.569,   1.843e-3
1.572,   1.914e-3
1.575,   1.988e-3
1.578,   2.062e-3
1.581,   2.132e-3
1.584,   2.205e-3
1.587,   2.276e-3
1.590,   2.350e-3
1.593,   2.422e-3
1.596,   2.493e-3
1.599,   2.564e-3
1.602,   2.632e-3
1.605,   2.704e-3
1.608,   2.769e-3
1.611,   2.839e-3
1.614,   2.906e-3
1.617,   2.975e-3
1.620,   3.045e-3
1.623,   3.106e-3
1.626,   3.169e-3
1.629,   3.241e-3
1.632,   3.299e-3
1.635,   3.357e-3
1.638,   3.426e-3
1.641,   3.487e-3
1.644,   3.535e-3
1.647,   3.600e-3
1.650,   3.660e-3
1.653,   3.704e-3
1.656,   3.758e-3
1.659,   3.801e-3
1.662,   3.844e-3
1.665,   3.901e-3
1.668,   3.970e-3
1.671,   4.005e-3
1.674,   4.034e-3
1.677,   4.076e-3
1.680,   4.106e-3
1.683,   4.131e-3
1.686,   4.153e-3
1.689,   4.180e-3
1.692,   4.199e-3
1.695,   4.218e-3
1.698,   4.230e-3
1.701,   4.249e-3
1.704,   4.260e-3
1.707,   4.260e-3
1.710,   4.268e-3
1.713,   4.277e-3
1.716,   4.271e-3
1.719,   4.276e-3
1.722,   4.271e-3
1.725,   4.263e-3
1.728,   4.252e-3
1.731,   4.245e-3
1.734,   4.233e-3
1.737,   4.213e-3
1.740,   4.192e-3
1.743,   4.178e-3
1.746,   4.157e-3
1.749,   4.135e-3
1.752,   4.116e-3
1.755,   4.088e-3
1.758,   4.068e-3
1.761,   4.047e-3
1.764,   4.020e-3
1.767,   3.992e-3
1.770,   3.966e-3
1.773,   3.935e-3
1.776,   3.905e-3
1.779,   3.879e-3
1.782,   3.847e-3
1.785,   3.814e-3
1.788,   3.788e-3
1.791,   3.756e-3
1.794,   3.730e-3
1.797,   3.697e-3
1.800,   3.666e-3
1.803,   3.634e-3
1.806,   3.605e-3
1.809,   3.572e-3
1.812,   3.543e-3
1.815,   3.513e-3

File: B1_BEST_500_#14_High_Quality-208mV.txt
Dec. 12, 2022   15:48:10
Linear Sweep Voltammetry
File: d:\current work\al_oer\electrochemical test data\batch 1\500\B1_BEST_500_#14_High_Quality-208mV.txt
Data Source:  Experiment
Instrument Model:  CHI660E
Header:
Note:

Init E (V) = 1.090

Final E (V) = 1.473

Scan Rate (V/s) = 0.010
Sample Interval (V) = 0.001
Quiet Time (sec) = 2
Sensitivity (A/V) = 0.001
Comp R (ohm) = 4.6

Results:

Channel 1:
Ep = 1.036V
ip = 2.322e-5A
Ah = 2.073e-4C

Potential/V, Current/A
1.090,   1.344e-4
1.092,   1.408e-4
1.094,   1.285e-4
1.096,   1.189e-4
1.098,   1.115e-4
1.100,   1.059e-4
1.102,   1.011e-4
1.104,   9.737e-5
1.106,   9.419e-5
1.108,   9.208e-5
1.110,   9.002e-5
1.112,   8.789e-5
1.114,   8.645e-5
1.116,   8.546e-5
1.118,   8.447e-5
1.120,   8.344e-5
1.122,   8.276e-5
1.124,   8.264e-5
1.126,   8.193e-5
1.128,   8.149e-5
1.130,   8.146e-5
1.132,   8.153e-5
1.134,   8.130e-5
1.136,   8.141e-5
1.138,   8.127e-5
1.140,   8.176e-5
1.142,   8.305e-5
1.144,   8.189e-5
1.146,   8.239e-5
1.148,   8.300e-5
1.150,   8.317e-5
1.152,   8.347e-5
1.154,   8.402e-5
1.156,   8.510e-5
1.158,   8.524e-5
1.160,   8.580e-5
1.162,   8.671e-5
1.164,   8.737e-5
1.166,   8.784e-5
1.168,   8.860e-5
1.170,   8.914e-5
1.172,   9.034e-5
1.174,   9.107e-5
1.176,   9.146e-5
1.178,   9.225e-5
1.180,   9.339e-5
1.182,   9.403e-5
1.184,   9.456e-5
1.186,   9.536e-5
1.188,   9.671e-5
1.190,   9.724e-5
1.192,   9.766e-5
1.194,   9.851e-5
1.196,   9.944e-5
1.198,   9.996e-5
1.200,   1.005e-4
1.202,   1.009e-4
1.204,   1.019e-4
1.206,   1.021e-4
1.208,   1.023e-4
1.210,   1.028e-4
1.212,   1.038e-4
1.214,   1.040e-4
1.216,   1.038e-4
1.218,   1.040e-4
1.220,   1.048e-4
1.222,   1.047e-4
1.224,   1.046e-4
1.226,   1.052e-4
1.228,   1.052e-4
1.230,   1.052e-4
1.232,   1.051e-4
1.234,   1.048e-4
1.236,   1.054e-4
1.238,   1.048e-4
1.240,   1.046e-4
1.242,   1.046e-4
1.244,   1.045e-4
1.246,   1.044e-4
1.248,   1.038e-4
1.250,   1.036e-4
1.252,   1.039e-4
1.254,   1.034e-4
1.256,   1.027e-4
1.258,   1.028e-4
1.260,   1.028e-4
1.262,   1.023e-4
1.264,   1.021e-4
1.266,   1.015e-4
1.268,   1.019e-4
1.270,   1.013e-4
1.272,   1.007e-4
1.274,   1.005e-4
1.276,   1.006e-4
1.278,   1.000e-4
1.280,   9.966e-5
1.282,   9.934e-5
1.284,   9.960e-5
1.286,   9.912e-5
1.288,   9.857e-5
1.290,   9.846e-5
1.292,   9.856e-5
1.294,   9.816e-5
1.296,   9.779e-5
1.298,   9.772e-5
1.300,   9.799e-5
1.302,   9.757e-5
1.304,   9.748e-5
1.306,   9.714e-5
1.308,   9.735e-5
1.310,   9.712e-5
1.312,   9.680e-5
1.314,   9.660e-5
1.316,   9.751e-5
1.318,   9.677e-5
1.320,   9.648e-5
1.322,   9.673e-5
1.324,   9.732e-5
1.326,   9.733e-5
1.328,   9.745e-5
1.330,   9.703e-5
1.332,   9.748e-5
1.334,   9.763e-5
1.336,   9.766e-5
1.338,   9.792e-5
1.340,   9.820e-5
1.342,   9.867e-5
1.344,   9.883e-5
1.346,   9.940e-5
1.348,   1.003e-4
1.350,   1.007e-4
1.352,   1.011e-4
1.354,   1.025e-4
1.356,   1.030e-4
1.358,   1.042e-4
1.360,   1.053e-4
1.362,   1.063e-4
1.364,   1.085e-4
1.366,   1.104e-4
1.368,   1.121e-4
1.370,   1.147e-4
1.372,   1.180e-4
1.374,   1.212e-4
1.376,   1.249e-4
1.378,   1.295e-4
1.380,   1.355e-4
1.382,   1.415e-4
1.384,   1.481e-4
1.386,   1.569e-4
1.388,   1.667e-4
1.390,   1.777e-4
1.392,   1.906e-4
1.394,   2.051e-4
1.396,   2.225e-4
1.398,   2.421e-4
1.400,   2.641e-4
1.402,   2.894e-4
1.404,   3.189e-4
1.406,   3.513e-4
1.408,   3.883e-4
1.410,   4.298e-4
1.412,   4.774e-4
1.414,   5.300e-4
1.416,   5.887e-4
1.418,   6.563e-4
1.420,   7.292e-4
1.422,   8.109e-4
1.424,   9.025e-4
1.426,   1.004e-3
1.428,   1.118e-3
1.430,   1.245e-3
1.432,   1.385e-3
1.434,   1.541e-3
1.436,   1.717e-3
1.438,   1.909e-3
1.440,   2.124e-3
1.442,   2.366e-3
1.444,   2.629e-3
1.446,   2.922e-3
1.448,   3.248e-3
1.450,   3.607e-3
1.452,   3.989e-3
1.454,   4.408e-3
1.456,   4.912e-3
1.458,   5.423e-3
1.460,   5.953e-3
1.462,   6.540e-3
1.464,   7.138e-3
1.466,   7.885e-3
1.468,   8.632e-3
1.470,   9.412e-3
1.472,   1.005e-2
1.473,   1.006e-2

File: B1_BEST_500_#15_Full-254mV.txt
Dec. 14, 2022   16:35:46
Linear Sweep Voltammetry
File: d:\current work\al_oer\electrochemical test data\batch 1\500\B1_BEST_500_#15_Full-254mV.txt
Data Source:  Experiment
Instrument Model:  CHI660E
Header:
Note:

Init E (V) = 1.096

Final E (V) = 1.580

Scan Rate (V/s) = 0.010
Sample Interval (V) = 0.001
Quiet Time (sec) = 2
Sensitivity (A/V) = 0.001
Comp R (ohm) = 5.3

Results:

Channel 1:

Potential/V, Current/A
1.096,   6.279e-4
1.098,   5.820e-4
1.100,   5.346e-4
1.102,   4.976e-4
1.104,   4.705e-4
1.106,   4.461e-4
1.108,   4.257e-4
1.110,   4.093e-4
1.112,   3.943e-4
1.114,   3.824e-4
1.116,   3.711e-4
1.118,   3.608e-4
1.120,   3.516e-4
1.122,   3.439e-4
1.124,   3.363e-4
1.126,   3.295e-4
1.128,   3.229e-4
1.130,   3.170e-4
1.132,   3.111e-4
1.134,   3.059e-4
1.136,   3.009e-4
1.138,   2.970e-4
1.140,   2.920e-4
1.142,   2.882e-4
1.144,   2.839e-4
1.146,   2.806e-4
1.148,   2.766e-4
1.150,   2.732e-4
1.152,   2.697e-4
1.154,   2.670e-4
1.156,   2.638e-4
1.158,   2.612e-4
1.160,   2.585e-4
1.162,   2.564e-4
1.164,   2.521e-4
1.166,   2.506e-4
1.168,   2.484e-4
1.170,   2.478e-4
1.172,   2.447e-4
1.174,   2.417e-4
1.176,   2.398e-4
1.178,   2.373e-4
1.180,   2.360e-4
1.182,   2.353e-4
1.184,   2.321e-4
1.186,   2.300e-4
1.188,   2.286e-4
1.190,   2.260e-4
1.192,   2.260e-4
1.194,   2.235e-4
1.196,   2.216e-4
1.198,   2.210e-4
1.200,   2.190e-4
1.202,   2.176e-4
1.204,   2.169e-4
1.206,   2.146e-4
1.208,   2.125e-4
1.210,   2.115e-4
1.212,   2.107e-4
1.214,   2.079e-4
1.216,   2.077e-4
1.218,   2.072e-4
1.220,   2.050e-4
1.222,   2.029e-4
1.224,   2.049e-4
1.226,   2.046e-4
1.228,   2.024e-4
1.230,   2.000e-4
1.232,   2.005e-4
1.234,   1.985e-4
1.236,   1.994e-4
1.238,   1.968e-4
1.240,   1.962e-4
1.242,   1.965e-4
1.244,   1.933e-4
1.246,   1.938e-4
1.248,   1.923e-4
1.250,   1.937e-4
1.252,   1.910e-4
1.254,   1.895e-4
1.256,   1.906e-4
1.258,   1.890e-4
1.260,   1.876e-4
1.262,   1.866e-4
1.264,   1.856e-4
1.266,   1.876e-4
1.268,   1.848e-4
1.270,   1.837e-4
1.272,   1.835e-4
1.274,   1.839e-4
1.276,   1.826e-4
1.278,   1.783e-4
1.280,   1.792e-4
1.282,   1.825e-4
1.284,   1.787e-4
1.286,   1.790e-4
1.288,   1.798e-4
1.290,   1.785e-4
1.292,   1.809e-4
1.294,   1.749e-4
1.296,   1.777e-4
1.298,   1.747e-4
1.300,   1.733e-4
1.302,   1.734e-4
1.304,   1.727e-4
1.306,   1.720e-4
1.308,   1.732e-4
1.310,   1.726e-4
1.312,   1.757e-4
1.314,   1.670e-4
1.316,   1.715e-4
1.318,   1.712e-4
1.320,   1.652e-4
1.322,   1.704e-4
1.324,   1.702e-4
1.326,   1.689e-4
1.328,   1.694e-4
1.330,   1.720e-4
1.332,   1.691e-4
1.334,   1.654e-4
1.336,   1.669e-4
1.338,   1.694e-4
1.340,   1.727e-4
1.342,   1.714e-4
1.344,   1.664e-4
1.346,   1.643e-4
1.348,   1.638e-4
1.350,   1.644e-4
1.352,   1.627e-4
1.354,   1.656e-4
1.356,   1.644e-4
1.358,   1.664e-4
1.360,   1.670e-4
1.362,   1.698e-4
1.364,   1.707e-4
1.366,   1.712e-4
1.368,   1.674e-4
1.370,   1.649e-4
1.372,   1.645e-4
1.374,   1.772e-4
1.376,   1.676e-4
1.378,   1.706e-4
1.380,   1.690e-4
1.382,   1.709e-4
1.384,   1.711e-4
1.386,   1.757e-4
1.388,   1.784e-4
1.390,   1.709e-4
1.392,   1.726e-4
1.394,   1.793e-4
1.396,   1.815e-4
1.398,   1.915e-4
1.400,   1.872e-4
1.402,   1.887e-4
1.404,   1.908e-4
1.406,   1.930e-4
1.408,   2.045e-4
1.410,   2.102e-4
1.412,   2.072e-4
1.414,   2.285e-4
1.416,   2.210e-4
1.418,   2.414e-4
1.420,   2.359e-4
1.422,   2.544e-4
1.424,   2.627e-4
1.426,   2.750e-4
1.428,   2.869e-4
1.430,   3.072e-4
1.432,   3.252e-4
1.434,   3.447e-4
1.436,   3.604e-4
1.438,   3.816e-4
1.440,   4.156e-4
1.442,   4.391e-4
1.444,   4.692e-4
1.446,   5.048e-4
1.448,   5.379e-4
1.450,   5.799e-4
1.452,   6.150e-4
1.454,   6.691e-4
1.456,   7.168e-4
1.458,   7.719e-4
1.460,   8.326e-4
1.462,   8.899e-4
1.464,   9.609e-4
1.466,   1.031e-3
1.468,   1.109e-3
1.470,   1.186e-3
1.472,   1.275e-3
1.474,   1.369e-3
1.476,   1.460e-3
1.478,   1.566e-3
1.480,   1.663e-3
1.482,   1.784e-3
1.484,   1.894e-3
1.486,   2.012e-3
1.488,   2.147e-3
1.490,   2.279e-3
1.492,   2.428e-3
1.494,   2.556e-3
1.496,   2.691e-3
1.498,   2.837e-3
1.500,   2.994e-3
1.502,   3.164e-3
1.504,   3.337e-3
1.506,   3.524e-3
1.508,   3.727e-3
1.510,   3.948e-3
1.512,   4.166e-3
1.514,   4.393e-3
1.516,   4.644e-3
1.518,   4.897e-3
1.520,   5.171e-3
1.522,   5.429e-3
1.524,   5.711e-3
1.526,   5.999e-3
1.528,   6.317e-3
1.530,   6.643e-3
1.532,   6.984e-3
1.534,   7.314e-3
1.536,   7.685e-3
1.538,   8.050e-3
1.540,   8.563e-3
1.542,   8.986e-3
1.544,   9.384e-3
1.546,   9.793e-3
1.548,   1.006e-2
1.550,   1.006e-2
1.552,   1.006e-2
1.554,   1.006e-2
1.556,   1.006e-2
1.558,   1.006e-2
1.560,   1.006e-2
1.562,   1.006e-2
1.564,   1.006e-2
1.566,   1.006e-2
1.568,   1.006e-2
1.570,   1.006e-2
1.572,   1.006e-2
1.574,   1.006e-2
1.576,   1.006e-2
1.578,   1.006e-2
1.580,   1.006e-2

File: B1_VARIANCE_500_#2_Full-226mV.txt
Dec. 14, 2022   16:02:34
Linear Sweep Voltammetry
File: d:\current work\al_oer\electrochemical test data\batch 1\500\B1_VARIANCE_500_#2_Full-226mV.txt
Data Source:  Experiment
Instrument Model:  CHI660E
Header:
Note:

Init E (V) = 1.096

Final E (V) = 1.547

Scan Rate (V/s) = 0.010
Sample Interval (V) = 0.001
Quiet Time (sec) = 2
Sensitivity (A/V) = 0.001
Comp R (ohm) = 6.5

Results:

Channel 1:

Potential/V, Current/A
1.096,   3.866e-5
1.098,   4.545e-5
1.100,   4.266e-5
1.102,   4.031e-5
1.104,   3.869e-5
1.106,   3.735e-5
1.108,   3.653e-5
1.110,   3.536e-5
1.112,   3.446e-5
1.114,   3.391e-5
1.116,   3.350e-5
1.118,   3.290e-5
1.120,   3.258e-5
1.122,   3.245e-5
1.124,   3.216e-5
1.126,   3.201e-5
1.128,   3.177e-5
1.130,   3.176e-5
1.132,   3.162e-5
1.134,   3.148e-5
1.136,   3.151e-5
1.138,   3.151e-5
1.140,   3.151e-5
1.142,   3.162e-5
1.144,   3.169e-5
1.146,   3.176e-5
1.148,   3.181e-5
1.150,   3.175e-5
1.152,   3.183e-5
1.154,   3.204e-5
1.156,   3.217e-5
1.158,   3.238e-5
1.160,   3.238e-5
1.162,   3.268e-5
1.164,   3.284e-5
1.166,   3.285e-5
1.168,   3.310e-5
1.170,   3.330e-5
1.172,   3.345e-5
1.174,   3.362e-5
1.176,   3.375e-5
1.178,   3.406e-5
1.180,   3.437e-5
1.182,   3.435e-5
1.184,   3.469e-5
1.186,   3.512e-5
1.188,   3.514e-5
1.190,   3.531e-5
1.192,   3.545e-5
1.194,   3.579e-5
1.196,   3.594e-5
1.198,   3.597e-5
1.200,   3.625e-5
1.202,   3.650e-5
1.204,   3.667e-5
1.206,   3.692e-5
1.208,   3.696e-5
1.210,   3.724e-5
1.212,   3.738e-5
1.214,   3.743e-5
1.216,   3.757e-5
1.218,   3.799e-5
1.220,   3.808e-5
1.222,   3.805e-5
1.224,   3.812e-5
1.226,   3.837e-5
1.228,   3.849e-5
1.230,   3.850e-5
1.232,   3.883e-5
1.234,   3.892e-5
1.236,   3.902e-5
1.238,   3.913e-5
1.240,   3.897e-5
1.242,   3.926e-5
1.244,   3.926e-5
1.246,   3.925e-5
1.248,   3.939e-5
1.250,   3.947e-5
1.252,   3.953e-5
1.254,   3.944e-5
1.256,   3.951e-5
1.258,   3.978e-5
1.260,   3.971e-5
1.262,   3.968e-5
1.264,   3.980e-5
1.266,   3.998e-5
1.268,   4.009e-5
1.270,   4.009e-5
1.272,   3.996e-5
1.274,   4.025e-5
1.276,   4.021e-5
1.278,   4.004e-5
1.280,   4.009e-5
1.282,   4.020e-5
1.284,   4.029e-5
1.286,   4.039e-5
1.288,   4.033e-5
1.290,   4.042e-5
1.292,   4.045e-5
1.294,   4.025e-5
1.296,   4.047e-5
1.298,   4.071e-5
1.300,   4.060e-5
1.302,   4.064e-5
1.304,   4.087e-5
1.306,   4.088e-5
1.308,   4.093e-5
1.310,   4.080e-5
1.312,   4.083e-5
1.314,   4.105e-5
1.316,   4.114e-5
1.318,   4.103e-5
1.320,   4.111e-5
1.322,   4.160e-5
1.324,   4.136e-5
1.326,   4.159e-5
1.328,   4.166e-5
1.330,   4.187e-5
1.332,   4.206e-5
1.334,   4.214e-5
1.336,   4.226e-5
1.338,   4.267e-5
1.340,   4.285e-5
1.342,   4.310e-5
1.344,   4.316e-5
1.346,   4.330e-5
1.348,   4.397e-5
1.350,   4.375e-5
1.352,   4.429e-5
1.354,   4.487e-5
1.356,   4.500e-5
1.358,   4.542e-5
1.360,   4.629e-5
1.362,   4.647e-5
1.364,   4.734e-5
1.366,   4.792e-5
1.368,   4.935e-5
1.370,   4.891e-5
1.372,   5.078e-5
1.374,   5.181e-5
1.376,   5.203e-5
1.378,   5.825e-5
1.380,   5.756e-5
1.382,   5.929e-5
1.384,   6.453e-5
1.386,   6.758e-5
1.388,   7.351e-5
1.390,   7.661e-5
1.392,   8.091e-5
1.394,   8.546e-5
1.396,   9.269e-5
1.398,   9.936e-5
1.400,   1.099e-4
1.402,   1.240e-4
1.404,   1.313e-4
1.406,   1.459e-4
1.408,   1.646e-4
1.410,   1.789e-4
1.412,   1.974e-4
1.414,   2.248e-4
1.416,   2.454e-4
1.418,   2.717e-4
1.420,   3.040e-4
1.422,   3.368e-4
1.424,   3.744e-4
1.426,   4.222e-4
1.428,   4.650e-4
1.430,   5.189e-4
1.432,   5.710e-4
1.434,   6.315e-4
1.436,   6.980e-4
1.438,   7.713e-4
1.440,   8.526e-4
1.442,   9.435e-4
1.444,   1.039e-3
1.446,   1.144e-3
1.448,   1.265e-3
1.450,   1.392e-3
1.452,   1.530e-3
1.454,   1.677e-3
1.456,   1.847e-3
1.458,   2.035e-3
1.460,   2.235e-3
1.462,   2.482e-3
1.464,   2.746e-3
1.466,   3.029e-3
1.468,   3.356e-3
1.470,   3.701e-3
1.472,   4.075e-3
1.474,   4.483e-3
1.476,   4.923e-3
1.478,   5.379e-3
1.480,   5.862e-3
1.482,   6.352e-3
1.484,   6.863e-3
1.486,   7.538e-3
1.488,   8.079e-3
1.490,   8.686e-3
1.492,   9.329e-3
1.494,   9.915e-3
1.496,   1.006e-2
1.498,   1.006e-2
1.500,   1.006e-2
1.502,   1.006e-2
1.504,   1.006e-2
1.506,   1.006e-2
1.508,   1.006e-2
1.510,   1.006e-2
1.512,   1.006e-2
1.514,   1.006e-2
1.516,   1.006e-2
1.518,   1.006e-2
1.520,   1.006e-2
1.522,   1.006e-2
1.524,   1.006e-2
1.526,   1.006e-2
1.528,   1.006e-2
1.530,   1.006e-2
1.532,   1.006e-2
1.534,   1.006e-2
1.536,   1.006e-2
1.538,   1.006e-2
1.540,   1.006e-2
1.542,   1.006e-2
1.544,   1.006e-2
1.546,   1.006e-2
1.547,   1.006e-2