Folder: DASH/Experimental Records, Raw Data, and Supplementary Notes and Figures/batch1/final500 (part 2)

File: B1_VARIANCE_500_#11_Full-242mV.txt
Dec. 12, 2022   16:00:11
Linear Sweep Voltammetry
File: d:\current work\al_oer\electrochemical test data\batch 1\500\B1_VARIANCE_500_#11_Full-242mV.txt
Data Source:  Experiment
Instrument Model:  CHI660E
Header:
Note:

Init E (V) = 1.096

Final E (V) = 1.540

Scan Rate (V/s) = 0.010
Sample Interval (V) = 0.001
Quiet Time (sec) = 2
Sensitivity (A/V) = 0.001
Comp R (ohm) = 5.2

Results:

Channel 1:

Potential/V, Current/A
1.096,   5.209e-5
1.098,   5.351e-5
1.100,   4.890e-5
1.102,   4.518e-5
1.104,   4.228e-5
1.106,   3.998e-5
1.108,   3.805e-5
1.110,   3.665e-5
1.112,   3.534e-5
1.114,   3.430e-5
1.116,   3.340e-5
1.118,   3.261e-5
1.120,   3.186e-5
1.122,   3.134e-5
1.124,   3.086e-5
1.126,   3.039e-5
1.128,   3.004e-5
1.130,   2.986e-5
1.132,   2.959e-5
1.134,   2.930e-5
1.136,   2.919e-5
1.138,   2.904e-5
1.140,   2.897e-5
1.142,   2.885e-5
1.144,   2.878e-5
1.146,   2.882e-5
1.148,   2.875e-5
1.150,   2.875e-5
1.152,   2.876e-5
1.154,   2.887e-5
1.156,   2.893e-5
1.158,   2.894e-5
1.160,   2.897e-5
1.162,   2.916e-5
1.164,   2.927e-5
1.166,   2.930e-5
1.168,   2.952e-5
1.170,   2.966e-5
1.172,   2.983e-5
1.174,   2.994e-5
1.176,   3.003e-5
1.178,   3.026e-5
1.180,   3.046e-5
1.182,   3.054e-5
1.184,   3.072e-5
1.186,   3.093e-5
1.188,   3.114e-5
1.190,   3.125e-5
1.192,   3.146e-5
1.194,   3.171e-5
1.196,   3.186e-5
1.198,   3.202e-5
1.200,   3.219e-5
1.202,   3.240e-5
1.204,   3.260e-5
1.206,   3.276e-5
1.208,   3.283e-5
1.210,   3.302e-5
1.212,   3.321e-5
1.214,   3.328e-5
1.216,   3.341e-5
1.218,   3.361e-5
1.220,   3.373e-5
1.222,   3.386e-5
1.224,   3.388e-5
1.226,   3.412e-5
1.228,   3.421e-5
1.230,   3.418e-5
1.232,   3.441e-5
1.234,   3.442e-5
1.236,   3.454e-5
1.238,   3.452e-5
1.240,   3.452e-5
1.242,   3.467e-5
1.244,   3.470e-5
1.246,   3.471e-5
1.248,   3.466e-5
1.250,   3.483e-5
1.252,   3.485e-5
1.254,   3.480e-5
1.256,   3.476e-5
1.258,   3.492e-5
1.260,   3.493e-5
1.262,   3.486e-5
1.264,   3.488e-5
1.266,   3.488e-5
1.268,   3.493e-5
1.270,   3.499e-5
1.272,   3.487e-5
1.274,   3.494e-5
1.276,   3.496e-5
1.278,   3.491e-5
1.280,   3.494e-5
1.282,   3.502e-5
1.284,   3.511e-5
1.286,   3.509e-5
1.288,   3.501e-5
1.290,   3.515e-5
1.292,   3.516e-5
1.294,   3.510e-5
1.296,   3.517e-5
1.298,   3.524e-5
1.300,   3.528e-5
1.302,   3.527e-5
1.304,   3.526e-5
1.306,   3.540e-5
1.308,   3.548e-5
1.310,   3.546e-5
1.312,   3.553e-5
1.314,   3.565e-5
1.316,   3.573e-5
1.318,   3.574e-5
1.320,   3.581e-5
1.322,   3.617e-5
1.324,   3.615e-5
1.326,   3.615e-5
1.328,   3.628e-5
1.330,   3.643e-5
1.332,   3.657e-5
1.334,   3.670e-5
1.336,   3.678e-5
1.338,   3.706e-5
1.340,   3.718e-5
1.342,   3.732e-5
1.344,   3.746e-5
1.346,   3.767e-5
1.348,   3.794e-5
1.350,   3.812e-5
1.352,   3.835e-5
1.354,   3.877e-5
1.356,   3.904e-5
1.358,   3.939e-5
1.360,   3.997e-5
1.362,   4.030e-5
1.364,   4.081e-5
1.366,   4.135e-5
1.368,   4.186e-5
1.370,   4.273e-5
1.372,   4.354e-5
1.374,   4.437e-5
1.376,   4.541e-5
1.378,   4.681e-5
1.380,   4.819e-5
1.382,   4.971e-5
1.384,   5.152e-5
1.386,   5.385e-5
1.388,   5.615e-5
1.390,   5.884e-5
1.392,   6.205e-5
1.394,   6.577e-5
1.396,   7.001e-5
1.398,   7.492e-5
1.400,   8.046e-5
1.402,   8.691e-5
1.404,   9.407e-5
1.406,   1.021e-4
1.408,   1.113e-4
1.410,   1.217e-4
1.412,   1.334e-4
1.414,   1.463e-4
1.416,   1.608e-4
1.418,   1.772e-4
1.420,   1.949e-4
1.422,   2.145e-4
1.424,   2.365e-4
1.426,   2.606e-4
1.428,   2.870e-4
1.430,   3.159e-4
1.432,   3.475e-4
1.434,   3.820e-4
1.436,   4.197e-4
1.438,   4.607e-4
1.440,   5.050e-4
1.442,   5.531e-4
1.444,   6.053e-4
1.446,   6.614e-4
1.448,   7.221e-4
1.450,   7.875e-4
1.452,   8.577e-4
1.454,   9.330e-4
1.456,   1.014e-3
1.458,   1.100e-3
1.460,   1.193e-3
1.462,   1.291e-3
1.464,   1.396e-3
1.466,   1.507e-3
1.468,   1.626e-3
1.470,   1.750e-3
1.472,   1.882e-3
1.474,   2.021e-3
1.476,   2.168e-3
1.478,   2.321e-3
1.480,   2.482e-3
1.482,   2.651e-3
1.484,   2.827e-3
1.486,   3.010e-3
1.488,   3.201e-3
1.490,   3.399e-3
1.492,   3.604e-3
1.494,   3.815e-3
1.496,   4.037e-3
1.498,   4.265e-3
1.500,   4.496e-3
1.502,   4.732e-3
1.504,   4.969e-3
1.506,   5.212e-3
1.508,   5.459e-3
1.510,   5.717e-3
1.512,   5.975e-3
1.514,   6.247e-3
1.516,   6.508e-3
1.518,   6.786e-3
1.520,   7.085e-3
1.522,   7.360e-3
1.524,   7.636e-3
1.526,   7.948e-3
1.528,   8.210e-3
1.530,   8.485e-3
1.532,   8.840e-3
1.534,   9.141e-3
1.536,   9.468e-3
1.538,   9.781e-3
1.540,   1.006e-2

File: B1_VARIANCE_500_#18_Full-282mV.txt
Dec. 14, 2022   16:13:35
Linear Sweep Voltammetry
File: d:\current work\al_oer\electrochemical test data\batch 1\500\B1_VARIANCE_500_#18_Full-282mV.txt
Data Source:  Experiment
Instrument Model:  CHI660E
Header:
Note:

Init E (V) = 1.104

Final E (V) = 1.640

Scan Rate (V/s) = 0.010
Sample Interval (V) = 0.001
Quiet Time (sec) = 2
Sensitivity (A/V) = 0.001
Comp R (ohm) = 5.0

Results:

Channel 1:

Potential/V, Current/A
1.104,   1.549e-4
1.106,   1.466e-4
1.108,   1.379e-4
1.110,   1.304e-4
1.112,   1.241e-4
1.114,   1.186e-4
1.116,   1.138e-4
1.118,   1.096e-4
1.120,   1.059e-4
1.122,   1.027e-4
1.124,   9.980e-5
1.126,   9.721e-5
1.128,   9.490e-5
1.130,   9.291e-5
1.132,   9.105e-5
1.134,   8.943e-5
1.136,   8.787e-5
1.138,   8.661e-5
1.140,   8.539e-5
1.142,   8.429e-5
1.144,   8.333e-5
1.146,   8.248e-5
1.148,   8.172e-5
1.150,   8.109e-5
1.152,   8.050e-5
1.154,   7.996e-5
1.156,   7.953e-5
1.158,   7.916e-5
1.160,   7.879e-5
1.162,   7.855e-5
1.164,   7.840e-5
1.166,   7.819e-5
1.168,   7.807e-5
1.170,   7.805e-5
1.172,   7.804e-5
1.174,   7.801e-5
1.176,   7.809e-5
1.178,   7.817e-5
1.180,   7.827e-5
1.182,   7.841e-5
1.184,   7.853e-5
1.186,   7.873e-5
1.188,   7.894e-5
1.190,   7.919e-5
1.192,   7.946e-5
1.194,   7.973e-5
1.196,   8.008e-5
1.198,   8.034e-5
1.200,   8.063e-5
1.202,   8.105e-5
1.204,   8.139e-5
1.206,   8.172e-5
1.208,   8.208e-5
1.210,   8.250e-5
1.212,   8.289e-5
1.214,   8.334e-5
1.216,   8.365e-5
1.218,   8.413e-5
1.220,   8.454e-5
1.222,   8.490e-5
1.224,   8.532e-5
1.226,   8.580e-5
1.228,   8.628e-5
1.230,   8.666e-5
1.232,   8.704e-5
1.234,   8.749e-5
1.236,   8.794e-5
1.238,   8.837e-5
1.240,   8.885e-5
1.242,   8.927e-5
1.244,   8.970e-5
1.246,   9.012e-5
1.248,   9.051e-5
1.250,   9.101e-5
1.252,   9.142e-5
1.254,   9.185e-5
1.256,   9.227e-5
1.258,   9.270e-5
1.260,   9.313e-5
1.262,   9.351e-5
1.264,   9.395e-5
1.266,   9.449e-5
1.268,   9.493e-5
1.270,   9.536e-5
1.272,   9.574e-5
1.274,   9.621e-5
1.276,   9.670e-5
1.278,   9.709e-5
1.280,   9.748e-5
1.282,   9.796e-5
1.284,   9.840e-5
1.286,   9.881e-5
1.288,   9.926e-5
1.290,   9.964e-5
1.292,   1.002e-4
1.294,   1.005e-4
1.296,   1.009e-4
1.298,   1.014e-4
1.300,   1.018e-4
1.302,   1.021e-4
1.304,   1.026e-4
1.306,   1.030e-4
1.308,   1.034e-4
1.310,   1.038e-4
1.312,   1.041e-4
1.314,   1.045e-4
1.316,   1.049e-4
1.318,   1.053e-4
1.320,   1.056e-4
1.322,   1.059e-4
1.324,   1.063e-4
1.326,   1.066e-4
1.328,   1.068e-4
1.330,   1.075e-4
1.332,   1.076e-4
1.334,   1.079e-4
1.336,   1.082e-4
1.338,   1.086e-4
1.340,   1.089e-4
1.342,   1.092e-4
1.344,   1.094e-4
1.346,   1.099e-4
1.348,   1.101e-4
1.350,   1.104e-4
1.352,   1.107e-4
1.354,   1.111e-4
1.356,   1.114e-4
1.358,   1.117e-4
1.360,   1.119e-4
1.362,   1.123e-4
1.364,   1.127e-4
1.366,   1.129e-4
1.368,   1.133e-4
1.370,   1.137e-4
1.372,   1.141e-4
1.374,   1.144e-4
1.376,   1.146e-4
1.378,   1.151e-4
1.380,   1.156e-4
1.382,   1.160e-4
1.384,   1.163e-4
1.386,   1.168e-4
1.388,   1.174e-4
1.390,   1.176e-4
1.392,   1.182e-4
1.394,   1.189e-4
1.396,   1.194e-4
1.398,   1.200e-4
1.400,   1.206e-4
1.402,   1.214e-4
1.404,   1.221e-4
1.406,   1.230e-4
1.408,   1.237e-4
1.410,   1.249e-4
1.412,   1.260e-4
1.414,   1.271e-4
1.416,   1.281e-4
1.418,   1.296e-4
1.420,   1.314e-4
1.422,   1.330e-4
1.424,   1.347e-4
1.426,   1.372e-4
1.428,   1.395e-4
1.430,   1.421e-4
1.432,   1.453e-4
1.434,   1.488e-4
1.436,   1.527e-4
1.438,   1.574e-4
1.440,   1.623e-4
1.442,   1.684e-4
1.444,   1.750e-4
1.446,   1.824e-4
1.448,   1.908e-4
1.450,   2.004e-4
1.452,   2.114e-4
1.454,   2.235e-4
1.456,   2.375e-4
1.458,   2.533e-4
1.460,   2.708e-4
1.462,   2.905e-4
1.464,   3.130e-4
1.466,   3.382e-4
1.468,   3.662e-4
1.470,   3.975e-4
1.472,   4.321e-4
1.474,   4.702e-4
1.476,   5.116e-4
1.478,   5.567e-4
1.480,   6.053e-4
1.482,   6.583e-4
1.484,   7.140e-4
1.486,   7.739e-4
1.488,   8.381e-4
1.490,   9.063e-4
1.492,   9.782e-4
1.494,   1.054e-3
1.496,   1.134e-3
1.498,   1.216e-3
1.500,   1.301e-3
1.502,   1.390e-3
1.504,   1.483e-3
1.506,   1.580e-3
1.508,   1.679e-3
1.510,   1.776e-3
1.512,   1.885e-3
1.514,   1.991e-3
1.516,   2.100e-3
1.518,   2.218e-3
1.520,   2.333e-3
1.522,   2.452e-3
1.524,   2.588e-3
1.526,   2.711e-3
1.528,   2.828e-3
1.530,   2.948e-3
1.532,   3.077e-3
1.534,   3.213e-3
1.536,   3.370e-3
1.538,   3.526e-3
1.540,   3.669e-3
1.542,   3.828e-3
1.544,   3.972e-3
1.546,   4.099e-3
1.548,   4.230e-3
1.550,   4.399e-3
1.552,   4.576e-3
1.554,   4.713e-3
1.556,   4.886e-3
1.558,   5.059e-3
1.560,   5.215e-3
1.562,   5.452e-3
1.564,   5.592e-3
1.566,   5.767e-3
1.568,   6.039e-3
1.570,   6.203e-3
1.572,   6.397e-3
1.574,   6.651e-3
1.576,   6.765e-3
1.578,   7.034e-3
1.580,   7.219e-3
1.582,   7.538e-3
1.584,   7.693e-3
1.586,   7.917e-3
1.588,   8.075e-3
1.590,   8.356e-3
1.592,   8.574e-3
1.594,   8.962e-3
1.596,   9.244e-3
1.598,   9.352e-3
1.600,   9.971e-3
1.602,   1.006e-2
1.604,   1.006e-2
1.606,   1.006e-2
1.608,   1.006e-2
1.610,   1.006e-2
1.612,   1.006e-2
1.614,   1.006e-2
1.616,   1.006e-2
1.618,   1.006e-2
1.620,   1.006e-2
1.622,   1.006e-2
1.624,   1.006e-2
1.626,   1.006e-2
1.628,   1.006e-2
1.630,   1.006e-2
1.632,   1.006e-2
1.634,   1.006e-2
1.636,   1.006e-2
1.638,   1.006e-2
1.640,   1.006e-2

File: B1_VARIANCE_500_#19_Full-318mV.txt
Dec. 14, 2022   15:30:19
Linear Sweep Voltammetry
File: d:\current work\al_oer\electrochemical test data\batch 1\500\B1_VARIANCE_500_#19_Full-318mV.txt
Data Source:  Experiment
Instrument Model:  CHI660E
Header:
Note:

Init E (V) = 1.127

Final E (V) = 1.673

Scan Rate (V/s) = 0.010
Sample Interval (V) = 0.001
Quiet Time (sec) = 2
Sensitivity (A/V) = 0.001
Comp R (ohm) = 5.3

Results:

Channel 1:

Potential/V, Current/A
1.127,   3.533e-5
1.129,   3.416e-5
1.131,   3.089e-5
1.133,   2.828e-5
1.135,   2.632e-5
1.137,   2.470e-5
1.139,   2.326e-5
1.141,   2.210e-5
1.143,   2.110e-5
1.145,   2.032e-5
1.147,   1.962e-5
1.149,   1.897e-5
1.151,   1.840e-5
1.153,   1.801e-5
1.155,   1.756e-5
1.157,   1.720e-5
1.159,   1.688e-5
1.161,   1.665e-5
1.163,   1.642e-5
1.165,   1.622e-5
1.167,   1.608e-5
1.169,   1.596e-5
1.171,   1.578e-5
1.173,   1.569e-5
1.175,   1.561e-5
1.177,   1.558e-5
1.179,   1.555e-5
1.181,   1.551e-5
1.183,   1.547e-5
1.185,   1.548e-5
1.187,   1.551e-5
1.189,   1.555e-5
1.191,   1.556e-5
1.193,   1.565e-5
1.195,   1.572e-5
1.197,   1.573e-5
1.199,   1.582e-5
1.201,   1.592e-5
1.203,   1.600e-5
1.205,   1.608e-5
1.207,   1.614e-5
1.209,   1.628e-5
1.211,   1.636e-5
1.213,   1.642e-5
1.215,   1.653e-5
1.217,   1.665e-5
1.219,   1.674e-5
1.221,   1.681e-5
1.223,   1.691e-5
1.225,   1.709e-5
1.227,   1.711e-5
1.229,   1.728e-5
1.231,   1.736e-5
1.233,   1.751e-5
1.235,   1.761e-5
1.237,   1.776e-5
1.239,   1.784e-5
1.241,   1.798e-5
1.243,   1.806e-5
1.245,   1.813e-5
1.247,   1.821e-5
1.249,   1.837e-5
1.251,   1.849e-5
1.253,   1.857e-5
1.255,   1.860e-5
1.257,   1.878e-5
1.259,   1.889e-5
1.261,   1.890e-5
1.263,   1.902e-5
1.265,   1.913e-5
1.267,   1.918e-5
1.269,   1.929e-5
1.271,   1.932e-5
1.273,   1.945e-5
1.275,   1.949e-5
1.277,   1.950e-5
1.279,   1.957e-5
1.281,   1.972e-5
1.283,   1.974e-5
1.285,   1.977e-5
1.287,   1.982e-5
1.289,   1.994e-5
1.291,   1.993e-5
1.293,   1.994e-5
1.295,   2.006e-5
1.297,   2.011e-5
1.299,   2.013e-5
1.301,   2.017e-5
1.303,   2.015e-5
1.305,   2.023e-5
1.307,   2.023e-5
1.309,   2.027e-5
1.311,   2.030e-5
1.313,   2.037e-5
1.315,   2.041e-5
1.317,   2.039e-5
1.319,   2.043e-5
1.321,   2.053e-5
1.323,   2.052e-5
1.325,   2.052e-5
1.327,   2.061e-5
1.329,   2.069e-5
1.331,   2.066e-5
1.333,   2.067e-5
1.335,   2.072e-5
1.337,   2.077e-5
1.339,   2.082e-5
1.341,   2.086e-5
1.343,   2.086e-5
1.345,   2.095e-5
1.347,   2.100e-5
1.349,   2.105e-5
1.351,   2.106e-5
1.353,   2.123e-5
1.355,   2.123e-5
1.357,   2.124e-5
1.359,   2.134e-5
1.361,   2.145e-5
1.363,   2.151e-5
1.365,   2.157e-5
1.367,   2.162e-5
1.369,   2.175e-5
1.371,   2.179e-5
1.373,   2.184e-5
1.375,   2.197e-5
1.377,   2.217e-5
1.379,   2.221e-5
1.381,   2.229e-5
1.383,   2.236e-5
1.385,   2.255e-5
1.387,   2.265e-5
1.389,   2.284e-5
1.391,   2.301e-5
1.393,   2.317e-5
1.395,   2.334e-5
1.397,   2.353e-5
1.399,   2.372e-5
1.401,   2.404e-5
1.403,   2.431e-5
1.405,   2.459e-5
1.407,   2.494e-5
1.409,   2.536e-5
1.411,   2.580e-5
1.413,   2.623e-5
1.415,   2.673e-5
1.417,   2.737e-5
1.419,   2.801e-5
1.421,   2.869e-5
1.423,   2.952e-5
1.425,   3.042e-5
1.427,   3.147e-5
1.429,   3.261e-5
1.431,   3.381e-5
1.433,   3.532e-5
1.435,   3.686e-5
1.437,   3.851e-5
1.439,   4.044e-5
1.441,   4.270e-5
1.443,   4.521e-5
1.445,   4.798e-5
1.447,   5.098e-5
1.449,   5.450e-5
1.451,   5.823e-5
1.453,   6.246e-5
1.455,   6.714e-5
1.457,   7.234e-5
1.459,   7.813e-5
1.461,   8.441e-5
1.463,   9.125e-5
1.465,   9.891e-5
1.467,   1.073e-4
1.469,   1.163e-4
1.471,   1.264e-4
1.473,   1.373e-4
1.475,   1.493e-4
1.477,   1.624e-4
1.479,   1.764e-4
1.481,   1.920e-4
1.483,   2.086e-4
1.485,   2.266e-4
1.487,   2.466e-4
1.489,   2.679e-4
1.491,   2.910e-4
1.493,   3.158e-4
1.495,   3.427e-4
1.497,   3.713e-4
1.499,   4.024e-4
1.501,   4.355e-4
1.503,   4.710e-4
1.505,   5.091e-4
1.507,   5.495e-4
1.509,   5.924e-4
1.511,   6.378e-4
1.513,   6.858e-4
1.515,   7.363e-4
1.517,   7.890e-4
1.519,   8.445e-4
1.521,   9.032e-4
1.523,   9.636e-4
1.525,   1.027e-3
1.527,   1.093e-3
1.529,   1.161e-3
1.531,   1.233e-3
1.533,   1.306e-3
1.535,   1.381e-3
1.537,   1.458e-3
1.539,   1.538e-3
1.541,   1.619e-3
1.543,   1.701e-3
1.545,   1.786e-3
1.547,   1.872e-3
1.549,   1.960e-3
1.551,   2.050e-3
1.553,   2.140e-3
1.555,   2.235e-3
1.557,   2.331e-3
1.559,   2.427e-3
1.561,   2.528e-3
1.563,   2.627e-3
1.565,   2.727e-3
1.567,   2.834e-3
1.569,   2.944e-3
1.571,   3.048e-3
1.573,   3.155e-3
1.575,   3.267e-3
1.577,   3.382e-3
1.579,   3.502e-3
1.581,   3.622e-3
1.583,   3.737e-3
1.585,   3.856e-3
1.587,   4.004e-3
1.589,   4.139e-3
1.591,   4.271e-3
1.593,   4.398e-3
1.595,   4.546e-3
1.597,   4.685e-3
1.599,   4.822e-3
1.601,   4.957e-3
1.603,   5.099e-3
1.605,   5.238e-3
1.607,   5.388e-3
1.609,   5.527e-3
1.611,   5.673e-3
1.613,   5.819e-3
1.615,   5.968e-3
1.617,   6.119e-3
1.619,   6.266e-3
1.621,   6.441e-3
1.623,   6.600e-3
1.625,   6.748e-3
1.627,   6.903e-3
1.629,   7.063e-3
1.631,   7.228e-3
1.633,   7.378e-3
1.635,   7.544e-3
1.637,   7.719e-3
1.639,   7.871e-3
1.641,   8.037e-3
1.643,   8.194e-3
1.645,   8.366e-3
1.647,   8.528e-3
1.649,   8.686e-3
1.651,   8.842e-3
1.653,   9.024e-3
1.655,   9.170e-3
1.657,   9.327e-3
1.659,   9.499e-3
1.661,   9.650e-3
1.663,   9.802e-3
1.665,   9.981e-3
1.667,   1.006e-2
1.669,   1.006e-2
1.671,   1.006e-2
1.673,   1.006e-2

File: B1_VARIANCE_500_#22_Full-269mV.txt
Dec. 14, 2022   14:54:40
Linear Sweep Voltammetry
File: d:\current work\al_oer\electrochemical test data\batch 1\500\B1_VARIANCE_500_#22_Full-269mV.txt
Data Source:  Experiment
Instrument Model:  CHI660E
Header:
Note:

Init E (V) = 1.106

Final E (V) = 1.644

Scan Rate (V/s) = 0.010
Sample Interval (V) = 0.001
Quiet Time (sec) = 2
Sensitivity (A/V) = 0.001
Comp R (ohm) = 5.9

Results:

Channel 1:
Ep = 1.399V
ip = 8.415e-3A
Ah = 1.301e-1C

Potential/V, Current/A
1.106,   1.524e-4
1.108,   1.336e-4
1.110,   1.170e-4
1.112,   1.039e-4
1.114,   9.363e-5
1.116,   8.515e-5
1.118,   7.814e-5
1.120,   7.224e-5
1.122,   6.733e-5
1.124,   6.315e-5
1.126,   5.954e-5
1.128,   5.634e-5
1.130,   5.370e-5
1.132,   5.136e-5
1.134,   4.921e-5
1.136,   4.728e-5
1.138,   4.562e-5
1.140,   4.425e-5
1.142,   4.298e-5
1.144,   4.180e-5
1.146,   4.071e-5
1.148,   3.982e-5
1.150,   3.898e-5
1.152,   3.820e-5
1.154,   3.754e-5
1.156,   3.700e-5
1.158,   3.645e-5
1.160,   3.587e-5
1.162,   3.540e-5
1.164,   3.496e-5
1.166,   3.462e-5
1.168,   3.429e-5
1.170,   3.394e-5
1.172,   3.366e-5
1.174,   3.338e-5
1.176,   3.314e-5
1.178,   3.295e-5
1.180,   3.282e-5
1.182,   3.263e-5
1.184,   3.251e-5
1.186,   3.233e-5
1.188,   3.230e-5
1.190,   3.217e-5
1.192,   3.207e-5
1.194,   3.200e-5
1.196,   3.197e-5
1.198,   3.195e-5
1.200,   3.188e-5
1.202,   3.183e-5
1.204,   3.181e-5
1.206,   3.183e-5
1.208,   3.179e-5
1.210,   3.174e-5
1.212,   3.178e-5
1.214,   3.179e-5
1.216,   3.178e-5
1.218,   3.173e-5
1.220,   3.182e-5
1.222,   3.183e-5
1.224,   3.182e-5
1.226,   3.187e-5
1.228,   3.193e-5
1.230,   3.202e-5
1.232,   3.201e-5
1.234,   3.204e-5
1.236,   3.209e-5
1.238,   3.209e-5
1.240,   3.210e-5
1.242,   3.220e-5
1.244,   3.226e-5
1.246,   3.229e-5
1.248,   3.236e-5
1.250,   3.241e-5
1.252,   3.248e-5
1.254,   3.252e-5
1.256,   3.256e-5
1.258,   3.260e-5
1.260,   3.263e-5
1.262,   3.274e-5
1.264,   3.275e-5
1.266,   3.276e-5
1.268,   3.286e-5
1.270,   3.294e-5
1.272,   3.293e-5
1.274,   3.301e-5
1.276,   3.306e-5
1.278,   3.316e-5
1.280,   3.320e-5
1.282,   3.323e-5
1.284,   3.334e-5
1.286,   3.338e-5
1.288,   3.341e-5
1.290,   3.343e-5
1.292,   3.351e-5
1.294,   3.360e-5
1.296,   3.359e-5
1.298,   3.360e-5
1.300,   3.374e-5
1.302,   3.375e-5
1.304,   3.373e-5
1.306,   3.381e-5
1.308,   3.384e-5
1.310,   3.392e-5
1.312,   3.393e-5
1.314,   3.395e-5
1.316,   3.409e-5
1.318,   3.413e-5
1.320,   3.407e-5
1.322,   3.420e-5
1.324,   3.428e-5
1.326,   3.439e-5
1.328,   3.438e-5
1.330,   3.445e-5
1.332,   3.467e-5
1.334,   3.468e-5
1.336,   3.465e-5
1.338,   3.476e-5
1.340,   3.486e-5
1.342,   3.501e-5
1.344,   3.514e-5
1.346,   3.522e-5
1.348,   3.538e-5
1.350,   3.549e-5
1.352,   3.566e-5
1.354,   3.578e-5
1.356,   3.601e-5
1.358,   3.615e-5
1.360,   3.638e-5
1.362,   3.655e-5
1.364,   3.685e-5
1.366,   3.700e-5
1.368,   3.718e-5
1.370,   3.750e-5
1.372,   3.780e-5
1.374,   3.805e-5
1.376,   3.845e-5
1.378,   3.880e-5
1.380,   3.935e-5
1.382,   3.988e-5
1.384,   4.053e-5
1.386,   4.114e-5
1.388,   4.194e-5
1.390,   4.285e-5
1.392,   4.376e-5
1.394,   4.497e-5
1.396,   4.642e-5
1.398,   4.793e-5
1.400,   4.970e-5
1.402,   5.181e-5
1.404,   5.430e-5
1.406,   5.697e-5
1.408,   6.011e-5
1.410,   6.379e-5
1.412,   6.798e-5
1.414,   7.273e-5
1.416,   7.811e-5
1.418,   8.417e-5
1.420,   9.088e-5
1.422,   9.853e-5
1.424,   1.069e-4
1.426,   1.163e-4
1.428,   1.265e-4
1.430,   1.383e-4
1.432,   1.508e-4
1.434,   1.648e-4
1.436,   1.797e-4
1.438,   1.959e-4
1.440,   2.134e-4
1.442,   2.330e-4
1.444,   2.538e-4
1.446,   2.761e-4
1.448,   3.002e-4
1.450,   3.260e-4
1.452,   3.541e-4
1.454,   3.839e-4
1.456,   4.160e-4
1.458,   4.504e-4
1.460,   4.875e-4
1.462,   5.267e-4
1.464,   5.686e-4
1.466,   6.135e-4
1.468,   6.623e-4
1.470,   7.136e-4
1.472,   7.688e-4
1.474,   8.279e-4
1.476,   8.895e-4
1.478,   9.543e-4
1.480,   1.024e-3
1.482,   1.099e-3
1.484,   1.178e-3
1.486,   1.262e-3
1.488,   1.350e-3
1.490,   1.441e-3
1.492,   1.536e-3
1.494,   1.635e-3
1.496,   1.739e-3
1.498,   1.848e-3
1.500,   1.964e-3
1.502,   2.083e-3
1.504,   2.208e-3
1.506,   2.338e-3
1.508,   2.466e-3
1.510,   2.600e-3
1.512,   2.741e-3
1.514,   2.890e-3
1.516,   3.038e-3
1.518,   3.186e-3
1.520,   3.338e-3
1.522,   3.486e-3
1.524,   3.638e-3
1.526,   3.786e-3
1.528,   3.942e-3
1.530,   4.102e-3
1.532,   4.250e-3
1.534,   4.423e-3
1.536,   4.588e-3
1.538,   4.746e-3
1.540,   4.960e-3
1.542,   5.243e-3
1.544,   5.396e-3
1.546,   5.546e-3
1.548,   5.701e-3
1.550,   5.849e-3
1.552,   6.040e-3
1.554,   6.330e-3
1.556,   6.499e-3
1.558,   6.642e-3
1.560,   6.864e-3
1.562,   6.999e-3
1.564,   7.128e-3
1.566,   7.229e-3
1.568,   7.380e-3
1.570,   7.522e-3
1.572,   7.683e-3
1.574,   7.747e-3
1.576,   7.839e-3
1.578,   7.993e-3
1.580,   8.054e-3
1.582,   8.072e-3
1.584,   8.186e-3
1.586,   8.194e-3
1.588,   8.211e-3
1.590,   8.208e-3
1.592,   8.231e-3
1.594,   8.315e-3
1.596,   8.417e-3
1.598,   8.389e-3
1.600,   8.384e-3
1.602,   8.372e-3
1.604,   8.471e-3
1.606,   8.397e-3
1.608,   8.367e-3
1.610,   8.293e-3
1.612,   8.236e-3
1.614,   8.351e-3
1.616,   8.262e-3
1.618,   8.156e-3
1.620,   8.079e-3
1.622,   7.988e-3
1.624,   7.919e-3
1.626,   7.844e-3
1.628,   7.750e-3
1.630,   7.660e-3
1.632,   7.568e-3
1.634,   7.484e-3
1.636,   7.405e-3
1.638,   7.360e-3
1.640,   7.248e-3
1.642,   7.239e-3
1.644,   7.123e-3

File: B1_VARIANCE_500_#23_Full-380mV.txt
Dec. 14, 2022   16:24:27
Linear Sweep Voltammetry
File: d:\current work\al_oer\electrochemical test data\batch 1\500\B1_VARIANCE_500_#23_Full-380mV.txt
Data Source:  Experiment
Instrument Model:  CHI660E
Header:
Note:

Init E (V) = 1.092

Final E (V) = 1.791

Scan Rate (V/s) = 0.010
Sample Interval (V) = 0.001
Quiet Time (sec) = 2
Sensitivity (A/V) = 0.001
Comp R (ohm) = 5.7

Results:

Channel 1:

Potential/V, Current/A
1.092,   1.021e-4
1.095,   8.394e-5
1.098,   7.154e-5
1.101,   6.267e-5
1.104,   5.561e-5
1.107,   5.064e-5
1.110,   4.607e-5
1.113,   4.227e-5
1.116,   3.972e-5
1.119,   3.685e-5
1.122,   3.494e-5
1.125,   3.367e-5
1.128,   3.252e-5
1.131,   3.166e-5
1.134,   3.040e-5
1.137,   2.916e-5
1.140,   2.836e-5
1.143,   2.762e-5
1.146,   2.699e-5
1.149,   2.612e-5
1.152,   2.580e-5
1.155,   2.586e-5
1.158,   2.539e-5
1.161,   2.476e-5
1.164,   2.434e-5
1.167,   2.401e-5
1.170,   2.392e-5
1.173,   2.344e-5
1.176,   2.325e-5
1.179,   2.310e-5
1.182,   2.307e-5
1.185,   2.303e-5
1.188,   2.292e-5
1.191,   2.275e-5
1.194,   2.264e-5
1.197,   2.253e-5
1.200,   2.271e-5
1.203,   2.266e-5
1.206,   2.254e-5
1.209,   2.269e-5
1.212,   2.269e-5
1.215,   2.260e-5
1.218,   2.276e-5
1.221,   2.294e-5
1.224,   2.277e-5
1.227,   2.286e-5
1.230,   2.300e-5
1.233,   2.309e-5
1.236,   2.318e-5
1.239,   2.325e-5
1.242,   2.336e-5
1.245,   2.338e-5
1.248,   2.336e-5
1.251,   2.355e-5
1.254,   2.369e-5
1.257,   2.384e-5
1.260,   2.390e-5
1.263,   2.392e-5
1.266,   2.395e-5
1.269,   2.400e-5
1.272,   2.404e-5
1.275,   2.421e-5
1.278,   2.435e-5
1.281,   2.440e-5
1.284,   2.452e-5
1.287,   2.462e-5
1.290,   2.470e-5
1.293,   2.488e-5
1.296,   2.487e-5
1.299,   2.492e-5
1.302,   2.501e-5
1.305,   2.516e-5
1.308,   2.518e-5
1.311,   2.529e-5
1.314,   2.537e-5
1.317,   2.569e-5
1.320,   2.587e-5
1.323,   2.579e-5
1.326,   2.588e-5
1.329,   2.613e-5
1.332,   2.621e-5
1.335,   2.640e-5
1.338,   2.652e-5
1.341,   2.656e-5
1.344,   2.688e-5
1.347,   2.698e-5
1.350,   2.708e-5
1.353,   2.715e-5
1.356,   2.725e-5
1.359,   2.753e-5
1.362,   2.790e-5
1.365,   2.824e-5
1.368,   2.868e-5
1.371,   2.898e-5
1.374,   2.950e-5
1.377,   3.027e-5
1.380,   3.100e-5
1.383,   3.180e-5
1.386,   3.287e-5
1.389,   3.414e-5
1.392,   3.580e-5
1.395,   3.750e-5
1.398,   3.939e-5
1.401,   4.165e-5
1.404,   4.418e-5
1.407,   4.714e-5
1.410,   5.047e-5
1.413,   5.415e-5
1.416,   5.800e-5
1.419,   6.231e-5
1.422,   6.694e-5
1.425,   7.180e-5
1.428,   7.740e-5
1.431,   8.349e-5
1.434,   9.003e-5
1.437,   9.726e-5
1.440,   1.053e-4
1.443,   1.142e-4
1.446,   1.238e-4
1.449,   1.344e-4
1.452,   1.458e-4
1.455,   1.581e-4
1.458,   1.713e-4
1.461,   1.852e-4
1.464,   1.997e-4
1.467,   2.153e-4
1.470,   2.315e-4
1.473,   2.484e-4
1.476,   2.658e-4
1.479,   2.840e-4
1.482,   3.027e-4
1.485,   3.223e-4
1.488,   3.424e-4
1.491,   3.631e-4
1.494,   3.839e-4
1.497,   4.059e-4
1.500,   4.279e-4
1.503,   4.505e-4
1.506,   4.738e-4
1.509,   4.972e-4
1.512,   5.215e-4
1.515,   5.460e-4
1.518,   5.715e-4
1.521,   5.980e-4
1.524,   6.247e-4
1.527,   6.519e-4
1.530,   6.800e-4
1.533,   7.097e-4
1.536,   7.405e-4
1.539,   7.719e-4
1.542,   8.037e-4
1.545,   8.392e-4
1.548,   8.734e-4
1.551,   9.092e-4
1.554,   9.459e-4
1.557,   9.850e-4
1.560,   1.027e-3
1.563,   1.064e-3
1.566,   1.107e-3
1.569,   1.148e-3
1.572,   1.193e-3
1.575,   1.241e-3
1.578,   1.293e-3
1.581,   1.348e-3
1.584,   1.397e-3
1.587,   1.451e-3
1.590,   1.507e-3
1.593,   1.565e-3
1.596,   1.622e-3
1.599,   1.683e-3
1.602,   1.748e-3
1.605,   1.814e-3
1.608,   1.881e-3
1.611,   1.952e-3
1.614,   2.023e-3
1.617,   2.098e-3
1.620,   2.168e-3
1.623,   2.246e-3
1.626,   2.325e-3
1.629,   2.409e-3
1.632,   2.504e-3
1.635,   2.592e-3
1.638,   2.677e-3
1.641,   2.756e-3
1.644,   2.844e-3
1.647,   2.935e-3
1.650,   3.023e-3
1.653,   3.120e-3
1.656,   3.205e-3
1.659,   3.297e-3
1.662,   3.381e-3
1.665,   3.487e-3
1.668,   3.560e-3
1.671,   3.658e-3
1.674,   3.751e-3
1.677,   3.818e-3
1.680,   3.963e-3
1.683,   4.186e-3
1.686,   4.263e-3
1.689,   4.340e-3
1.692,   4.416e-3
1.695,   4.496e-3
1.698,   4.584e-3
1.701,   4.664e-3
1.704,   4.706e-3
1.707,   4.776e-3
1.710,   4.852e-3
1.713,   4.878e-3
1.716,   4.989e-3
1.719,   5.084e-3
1.722,   5.116e-3
1.725,   5.164e-3
1.728,   5.167e-3
1.731,   5.253e-3
1.734,   5.277e-3
1.737,   5.342e-3
1.740,   5.347e-3
1.743,   5.404e-3
1.746,   5.413e-3
1.749,   5.476e-3
1.752,   5.477e-3
1.755,   5.511e-3
1.758,   5.549e-3
1.761,   5.568e-3
1.764,   5.597e-3
1.767,   5.581e-3
1.770,   5.616e-3
1.773,   5.610e-3
1.776,   5.648e-3
1.779,   5.673e-3
1.782,   5.675e-3
1.785,   5.688e-3
1.788,   5.665e-3
1.791,   5.671e-3