Folder: DASH/Experimental Records, Raw Data, and Supplementary Notes and Figures/batch1/final400

Note: README.md
# DASH
This is the online repository that stores code, data and supplementary figures of the research work: <Leveraging Data Mining, Active Learning, and Domain Adaptation in a Multi-Stage, Machine Learning-Driven Approach for the Efficient Discovery of Advanced Acidic Oxygen Evolution Electrocatalysts> by Rui Ding et. al. (https://arxiv.org/abs/2407.04877)
![Workflow Schematic](https://github.com/ruiding-uchicago/D.A.S.H./blob/main/Online%20Repository%20Figures/D.A.S.H.%20Workflow.jpg)
## Code Description

Our code is written and uploaded on GitHub in Jupyter notebook file format, which is already very easy to conduct and get results. Our code does not include providing a new python library, but users could track how we train machine learning models in Jupyter ipynb files. Also, we have provided all original dataset CSV files to drive the active learning flow. Additionally, we have detailed the python version and package environment used for this work, focusing on machine learning-related packages.

## Environment
This project was trained using Python version 3.9.12. Below is the list of machine learning-related packages and their versions used in this project on the local machine we used equipped with 2080 Ti GPU, users could install anaconda (https://www.anaconda.com/download) and using pip install to install the packages below for setting environment to run in the Jupyter notebook (https://docs.anaconda.com/ae-notebooks/user-guide/basic-tasks/apps/jupyter/index.html):

absl-py 1.2.0
ase 3.22.1
catboost 1.0.6
cython 0.29.28
dask 2022.2.1
deep-forest 0.1.7
gensim 4.1.2
h5py 3.6.0
keras 2.9.0
Keras-Preprocessing 1.1.2
keras-tcn 3.5.0
lightgbm 3.3.2
matplotlib 3.4.3
numpy 1.23.5
pandas 1.4.2
pytorch-lightning 2.0.1
pymatgen 2023.8.10
scikit-learn 1.0.2
scipy 1.8.0
scikit-opt  0.6.6
scikit-optimize 0.9.0
seaborn 0.11.2
tensorboard                  2.10.1
tensorboard-data-server      0.6.1
tensorboard-plugin-wit       1.8.1
tensorflow-estimator         2.10.0
tensorflow-gpu               2.10.0
tensorflow-io-gcs-filesystem 0.31.0
torch 2.0.0
torchvision 0.15.1
xgboost 1.6.2

File: B1_BEST_400_#7_High_Quality-263mV.txt
Dec. 8, 2022   16:16:24
Linear Sweep Voltammetry
File: d:\current work\al_oer\electrochemical test data\batch 1\400\B1_BEST_400_#7_High_Quality-263mV.txt
Data Source:  Experiment
Instrument Model:  CHI660E
Header:
Note:

Init E (V) = 1.091

Final E (V) = 1.567

Scan Rate (V/s) = 0.010
Sample Interval (V) = 0.001
Quiet Time (sec) = 2
Sensitivity (A/V) = 0.001
Comp R (ohm) = 5.1

Results:

Channel 1:

Potential/V, Current/A
1.091,   1.342e-4
1.093,   1.170e-4
1.095,   1.021e-4
1.097,   9.077e-5
1.099,   8.180e-5
1.101,   7.430e-5
1.103,   6.816e-5
1.105,   6.302e-5
1.107,   5.867e-5
1.109,   5.506e-5
1.111,   5.194e-5
1.113,   4.925e-5
1.115,   4.677e-5
1.117,   4.475e-5
1.119,   4.289e-5
1.121,   4.130e-5
1.123,   3.979e-5
1.125,   3.854e-5
1.127,   3.743e-5
1.129,   3.644e-5
1.131,   3.553e-5
1.133,   3.471e-5
1.135,   3.386e-5
1.137,   3.316e-5
1.139,   3.257e-5
1.141,   3.208e-5
1.143,   3.153e-5
1.145,   3.109e-5
1.147,   3.065e-5
1.149,   3.033e-5
1.151,   2.995e-5
1.153,   2.963e-5
1.155,   2.934e-5
1.157,   2.915e-5
1.159,   2.889e-5
1.161,   2.861e-5
1.163,   2.847e-5
1.165,   2.829e-5
1.167,   2.817e-5
1.169,   2.798e-5
1.171,   2.785e-5
1.173,   2.778e-5
1.175,   2.767e-5
1.177,   2.758e-5
1.179,   2.755e-5
1.181,   2.754e-5
1.183,   2.747e-5
1.185,   2.737e-5
1.187,   2.736e-5
1.189,   2.732e-5
1.191,   2.729e-5
1.193,   2.732e-5
1.195,   2.734e-5
1.197,   2.735e-5
1.199,   2.739e-5
1.201,   2.738e-5
1.203,   2.742e-5
1.205,   2.740e-5
1.207,   2.741e-5
1.209,   2.743e-5
1.211,   2.747e-5
1.213,   2.757e-5
1.215,   2.769e-5
1.217,   2.765e-5
1.219,   2.769e-5
1.221,   2.777e-5
1.223,   2.782e-5
1.225,   2.788e-5
1.227,   2.796e-5
1.229,   2.803e-5
1.231,   2.809e-5
1.233,   2.815e-5
1.235,   2.818e-5
1.237,   2.824e-5
1.239,   2.837e-5
1.241,   2.843e-5
1.243,   2.854e-5
1.245,   2.869e-5
1.247,   2.873e-5
1.249,   2.881e-5
1.251,   2.890e-5
1.253,   2.902e-5
1.255,   2.904e-5
1.257,   2.915e-5
1.259,   2.927e-5
1.261,   2.937e-5
1.263,   2.951e-5
1.265,   2.957e-5
1.267,   2.969e-5
1.269,   2.983e-5
1.271,   2.989e-5
1.273,   2.999e-5
1.275,   3.005e-5
1.277,   3.024e-5
1.279,   3.036e-5
1.281,   3.050e-5
1.283,   3.054e-5
1.285,   3.068e-5
1.287,   3.081e-5
1.289,   3.086e-5
1.291,   3.099e-5
1.293,   3.117e-5
1.295,   3.130e-5
1.297,   3.140e-5
1.299,   3.154e-5
1.301,   3.170e-5
1.303,   3.189e-5
1.305,   3.199e-5
1.307,   3.215e-5
1.309,   3.230e-5
1.311,   3.250e-5
1.313,   3.268e-5
1.315,   3.284e-5
1.317,   3.307e-5
1.319,   3.325e-5
1.321,   3.348e-5
1.323,   3.356e-5
1.325,   3.385e-5
1.327,   3.410e-5
1.329,   3.447e-5
1.331,   3.455e-5
1.333,   3.481e-5
1.335,   3.507e-5
1.337,   3.536e-5
1.339,   3.560e-5
1.341,   3.586e-5
1.343,   3.621e-5
1.345,   3.644e-5
1.347,   3.680e-5
1.349,   3.724e-5
1.351,   3.757e-5
1.353,   3.792e-5
1.355,   3.847e-5
1.357,   3.888e-5
1.359,   3.948e-5
1.361,   4.006e-5
1.363,   4.075e-5
1.365,   4.161e-5
1.367,   4.244e-5
1.369,   4.351e-5
1.371,   4.452e-5
1.373,   4.584e-5
1.375,   4.722e-5
1.377,   4.884e-5
1.379,   5.060e-5
1.381,   5.280e-5
1.383,   5.519e-5
1.385,   5.792e-5
1.387,   6.104e-5
1.389,   6.456e-5
1.391,   6.858e-5
1.393,   7.304e-5
1.395,   7.820e-5
1.397,   8.390e-5
1.399,   9.027e-5
1.401,   9.733e-5
1.403,   1.051e-4
1.405,   1.137e-4
1.407,   1.233e-4
1.409,   1.337e-4
1.411,   1.450e-4
1.413,   1.576e-4
1.415,   1.711e-4
1.417,   1.856e-4
1.419,   2.013e-4
1.421,   2.182e-4
1.423,   2.364e-4
1.425,   2.561e-4
1.427,   2.768e-4
1.429,   2.989e-4
1.431,   3.228e-4
1.433,   3.482e-4
1.435,   3.753e-4
1.437,   4.039e-4
1.439,   4.344e-4
1.441,   4.662e-4
1.443,   4.992e-4
1.445,   5.349e-4
1.447,   5.720e-4
1.449,   6.107e-4
1.451,   6.516e-4
1.453,   6.947e-4
1.455,   7.396e-4
1.457,   7.863e-4
1.459,   8.321e-4
1.461,   8.815e-4
1.463,   9.319e-4
1.465,   9.864e-4
1.467,   1.044e-3
1.469,   1.101e-3
1.471,   1.161e-3
1.473,   1.223e-3
1.475,   1.288e-3
1.477,   1.352e-3
1.479,   1.420e-3
1.481,   1.486e-3
1.483,   1.557e-3
1.485,   1.632e-3
1.487,   1.705e-3
1.489,   1.779e-3
1.491,   1.857e-3
1.493,   1.934e-3
1.495,   2.012e-3
1.497,   2.092e-3
1.499,   2.170e-3
1.501,   2.248e-3
1.503,   2.329e-3
1.505,   2.415e-3
1.507,   2.494e-3
1.509,   2.572e-3
1.511,   2.654e-3
1.513,   2.733e-3
1.515,   2.808e-3
1.517,   2.888e-3
1.519,   2.965e-3
1.521,   3.042e-3
1.523,   3.116e-3
1.525,   3.189e-3
1.527,   3.264e-3
1.529,   3.335e-3
1.531,   3.403e-3
1.533,   3.472e-3
1.535,   3.543e-3
1.537,   3.611e-3
1.539,   3.677e-3
1.541,   3.731e-3
1.543,   3.792e-3
1.545,   3.851e-3
1.547,   3.910e-3
1.549,   3.961e-3
1.551,   4.017e-3
1.553,   4.068e-3
1.555,   4.117e-3
1.557,   4.164e-3
1.559,   4.204e-3
1.561,   4.247e-3
1.563,   4.284e-3
1.565,   4.321e-3
1.567,   4.355e-3

File: B1_BEST_400_#10_Full-234mV.txt
Dec. 6, 2022   16:53:31
Linear Sweep Voltammetry
File: d:\current work\al_oer\electrochemical test data\batch 1\400\B1_BEST_400_#10_Full-234mV.txt
Data Source:  Experiment
Instrument Model:  CHI660E
Header:
Note:

Init E (V) = 1.099

Final E (V) = 1.498

Scan Rate (V/s) = 0.010
Sample Interval (V) = 0.001
Quiet Time (sec) = 2
Sensitivity (A/V) = 0.001
Comp R (ohm) = 4.7

Results:

Channel 1:

Potential/V, Current/A
1.099,   6.898e-7
1.101,   1.328e-5
1.103,   1.490e-5
1.105,   1.570e-5
1.107,   1.642e-5
1.109,   1.696e-5
1.111,   1.737e-5
1.113,   1.771e-5
1.115,   1.801e-5
1.117,   1.843e-5
1.119,   1.871e-5
1.121,   1.894e-5
1.123,   1.918e-5
1.125,   1.946e-5
1.127,   1.966e-5
1.129,   1.988e-5
1.131,   2.004e-5
1.133,   2.038e-5
1.135,   2.058e-5
1.137,   2.073e-5
1.139,   2.099e-5
1.141,   2.121e-5
1.143,   2.142e-5
1.145,   2.162e-5
1.147,   2.173e-5
1.149,   2.201e-5
1.151,   2.221e-5
1.153,   2.228e-5
1.155,   2.252e-5
1.157,   2.279e-5
1.159,   2.303e-5
1.161,   2.315e-5
1.163,   2.332e-5
1.165,   2.360e-5
1.167,   2.379e-5
1.169,   2.393e-5
1.171,   2.417e-5
1.173,   2.437e-5
1.175,   2.457e-5
1.177,   2.465e-5
1.179,   2.490e-5
1.181,   2.515e-5
1.183,   2.542e-5
1.185,   2.550e-5
1.187,   2.563e-5
1.189,   2.591e-5
1.191,   2.611e-5
1.193,   2.626e-5
1.195,   2.640e-5
1.197,   2.670e-5
1.199,   2.687e-5
1.201,   2.698e-5
1.203,   2.716e-5
1.205,   2.738e-5
1.207,   2.759e-5
1.209,   2.770e-5
1.211,   2.786e-5
1.213,   2.804e-5
1.215,   2.821e-5
1.217,   2.834e-5
1.219,   2.845e-5
1.221,   2.869e-5
1.223,   2.890e-5
1.225,   2.894e-5
1.227,   2.901e-5
1.229,   2.926e-5
1.231,   2.939e-5
1.233,   2.950e-5
1.235,   2.966e-5
1.237,   2.980e-5
1.239,   2.995e-5
1.241,   3.004e-5
1.243,   3.011e-5
1.245,   3.032e-5
1.247,   3.048e-5
1.249,   3.049e-5
1.251,   3.059e-5
1.253,   3.078e-5
1.255,   3.091e-5
1.257,   3.099e-5
1.259,   3.106e-5
1.261,   3.133e-5
1.263,   3.141e-5
1.265,   3.144e-5
1.267,   3.151e-5
1.269,   3.174e-5
1.271,   3.183e-5
1.273,   3.194e-5
1.275,   3.198e-5
1.277,   3.216e-5
1.279,   3.228e-5
1.281,   3.232e-5
1.283,   3.240e-5
1.285,   3.264e-5
1.287,   3.274e-5
1.289,   3.277e-5
1.291,   3.282e-5
1.293,   3.312e-5
1.295,   3.322e-5
1.297,   3.325e-5
1.299,   3.338e-5
1.301,   3.357e-5
1.303,   3.372e-5
1.305,   3.375e-5
1.307,   3.387e-5
1.309,   3.408e-5
1.311,   3.429e-5
1.313,   3.431e-5
1.315,   3.440e-5
1.317,   3.467e-5
1.319,   3.486e-5
1.321,   3.490e-5
1.323,   3.505e-5
1.325,   3.542e-5
1.327,   3.554e-5
1.329,   3.565e-5
1.331,   3.585e-5
1.333,   3.613e-5
1.335,   3.636e-5
1.337,   3.658e-5
1.339,   3.667e-5
1.341,   3.710e-5
1.343,   3.733e-5
1.345,   3.752e-5
1.347,   3.776e-5
1.349,   3.822e-5
1.351,   3.856e-5
1.353,   3.883e-5
1.355,   3.924e-5
1.357,   3.986e-5
1.359,   4.028e-5
1.361,   4.072e-5
1.363,   4.137e-5
1.365,   4.206e-5
1.367,   4.278e-5
1.369,   4.353e-5
1.371,   4.442e-5
1.373,   4.563e-5
1.375,   4.686e-5
1.377,   4.820e-5
1.379,   4.976e-5
1.381,   5.171e-5
1.383,   5.383e-5
1.385,   5.620e-5
1.387,   5.906e-5
1.389,   6.247e-5
1.391,   6.626e-5
1.393,   7.060e-5
1.395,   7.577e-5
1.397,   8.172e-5
1.399,   8.852e-5
1.401,   9.638e-5
1.403,   1.052e-4
1.405,   1.155e-4
1.407,   1.273e-4
1.409,   1.403e-4
1.411,   1.553e-4
1.413,   1.723e-4
1.415,   1.912e-4
1.417,   2.122e-4
1.419,   2.358e-4
1.421,   2.623e-4
1.423,   2.913e-4
1.425,   3.233e-4
1.427,   3.588e-4
1.429,   3.973e-4
1.431,   4.397e-4
1.433,   4.855e-4
1.435,   5.353e-4
1.437,   5.897e-4
1.439,   6.484e-4
1.441,   7.118e-4
1.443,   7.802e-4
1.445,   8.538e-4
1.447,   9.330e-4
1.449,   1.018e-3
1.451,   1.109e-3
1.453,   1.206e-3
1.455,   1.310e-3
1.457,   1.420e-3
1.459,   1.538e-3
1.461,   1.663e-3
1.463,   1.796e-3
1.465,   1.938e-3
1.467,   2.087e-3
1.469,   2.245e-3
1.471,   2.412e-3
1.473,   2.588e-3
1.475,   2.773e-3
1.477,   2.967e-3
1.479,   3.172e-3
1.481,   3.385e-3
1.483,   3.608e-3
1.485,   3.840e-3
1.487,   4.083e-3
1.489,   4.335e-3
1.491,   4.597e-3
1.493,   4.868e-3
1.495,   5.150e-3
1.497,   5.441e-3
1.498,   5.590e-3

File: B1_VARIANCE_400_#2_High_Quality-337mV.txt
Dec. 6, 2022   15:29:17
Linear Sweep Voltammetry
File: d:\current work\al_oer\electrochemical test data\batch 1\400\B1_VARIANCE_400_#2_High_Quality-337mV
Data Source:  Experiment
Instrument Model:  CHI660E
Header:
Note:

Init E (V) = 1.087
Final E (V) = 1.585
Scan Rate (V/s) = 0.010
Sample Interval (V) = 0.001
Quiet Time (sec) = 2
Sensitivity (A/V) = 0.001

Results:

Channel 1:

Potential/V, Current/A
1.086,	8.10E-06
1.088,	0.00001057
1.09,	0.00001135
1.092,	0.00001187
1.094,	0.00001235
1.096,	0.00001275
1.098,	0.00001308
1.1,	0.0000134
1.102,	0.00001368
1.104,	0.000014
1.106,	0.00001422
1.108,	0.00001447
1.11,	0.00001467
1.112,	0.00001491
1.114,	0.00001515
1.116,	0.00001529
1.118,	0.00001549
1.12,	0.0000157
1.122,	0.0000159
1.124,	0.00001607
1.126,	0.00001624
1.128,	0.00001644
1.13,	0.0000166
1.132,	0.00001675
1.134,	0.00001693
1.136,	0.00001712
1.138,	0.00001729
1.14,	0.00001742
1.142,	0.00001758
1.144,	0.00001776
1.146,	0.00001795
1.148,	0.00001811
1.15,	0.00001829
1.152,	0.00001846
1.154,	0.00001865
1.156,	0.00001879
1.158,	0.00001898
1.16,	0.00001915
1.162,	0.00001931
1.164,	0.00001947
1.166,	0.00001962
1.168,	0.00001983
1.17,	0.00002002
1.172,	0.00002016
1.174,	0.0000203
1.176,	0.00002051
1.178,	0.00002068
1.18,	0.00002082
1.182,	0.00002098
1.184,	0.00002121
1.186,	0.00002135
1.188,	0.00002151
1.19,	0.00002167
1.192,	0.00002183
1.194,	0.00002201
1.196,	0.00002218
1.198,	0.00002231
1.2,	0.00002249
1.202,	0.00002268
1.204,	0.00002283
1.206,	0.00002297
1.208,	0.00002315
1.21,	0.00002335
1.212,	0.00002353
1.214,	0.00002365
1.216,	0.00002385
1.218,	0.00002401
1.22,	0.00002417
1.222,	0.00002434
1.224,	0.00002454
1.226,	0.00002472
1.228,	0.00002487
1.23,	0.00002503
1.232,	0.00002524
1.234,	0.00002542
1.236,	0.00002563
1.238,	0.0000258
1.24,	0.00002597
1.242,	0.00002617
1.244,	0.00002631
1.246,	0.0000265
1.248,	0.00002676
1.25,	0.00002695
1.252,	0.00002714
1.254,	0.00002732
1.256,	0.00002758
1.258,	0.00002779
1.26,	0.00002802
1.262,	0.00002822
1.264,	0.00002843
1.266,	0.00002865
1.268,	0.00002892
1.27,	0.00002919
1.272,	0.00002941
1.274,	0.00002968
1.276,	0.00002996
1.278,	0.00003021
1.28,	0.00003051
1.282,	0.00003081
1.284,	0.00003103
1.286,	0.00003144
1.288,	0.00003166
1.29,	0.00003195
1.292,	0.0000323
1.294,	0.00003264
1.296,	0.00003295
1.298,	0.00003335
1.3,	0.00003368
1.302,	0.00003402
1.304,	0.00003445
1.306,	0.00003482
1.308,	0.0000352
1.31,	0.00003558
1.312,	0.00003603
1.314,	0.00003643
1.316,	0.00003684
1.318,	0.00003726
1.32,	0.00003773
1.322,	0.00003816
1.324,	0.0000386
1.326,	0.00003906
1.328,	0.00003959
1.33,	0.00004002
1.332,	0.00004046
1.334,	0.00004101
1.336,	0.00004151
1.338,	0.00004203
1.34,	0.00004259
1.342,	0.00004312
1.344,	0.00004365
1.346,	0.0000442
1.348,	0.00004475
1.35,	0.00004531
1.352,	0.00004591
1.354,	0.00004653
1.356,	0.00004713
1.358,	0.00004773
1.36,	0.00004837
1.362,	0.00004904
1.364,	0.00004977
1.366,	0.00005046
1.368,	0.00005115
1.37,	0.00005193
1.372,	0.00005273
1.374,	0.00005349
1.376,	0.00005441
1.378,	0.00005525
1.38,	0.00005619
1.382,	0.00005726
1.384,	0.00005833
1.386,	0.00005946
1.388,	0.00006064
1.39,	0.00006192
1.392,	0.00006331
1.394,	0.00006481
1.396,	0.00006639
1.398,	0.00006808
1.4,	0.00007002
1.402,	0.00007214
1.404,	0.00007428
1.406,	0.00007673
1.408,	0.00007937
1.41,	0.00008216
1.412,	0.0000852
1.414,	0.00008858
1.416,	0.00009212
1.418,	0.00009592
1.42,	0.00009997
1.422,	0.0001044
1.424,	0.0001091
1.426,	0.0001141
1.428,	0.0001196
1.43,	0.0001253
1.432,	0.0001315
1.434,	0.0001379
1.436,	0.0001446
1.438,	0.0001517
1.44,	0.0001594
1.442,	0.0001673
1.444,	0.0001755
1.446,	0.0001843
1.448,	0.0001973
1.45,	0.0002093
1.452,	0.0002208
1.454,	0.0002339
1.456,	0.0002469
1.458,	0.0002604
1.46,	0.0002742
1.462,	0.0002883
1.464,	0.000303
1.466,	0.0003184
1.468,	0.0003343
1.47,	0.0003506
1.472,	0.0003705
1.474,	0.0003939
1.476,	0.0004144
1.478,	0.0004294
1.48,	0.0004531
1.482,	0.0004763
1.484,	0.0004964
1.486,	0.0005217
1.488,	0.0005427
1.49,	0.0005738
1.492,	0.0005966
1.494,	0.0006263
1.496,	0.0006535
1.498,	0.0006924
1.5,	0.0007197
1.502,	0.0007369
1.504,	0.0007658
1.506,	0.0007943
1.508,	0.0008216
1.51,	0.0008546
1.512,	0.0009001
1.514,	0.0009254
1.516,	0.0009571
1.518,	0.0009947
1.52,	0.001028
1.522,	0.00107
1.524,	0.001101
1.526,	0.001121
1.528,	0.001167
1.53,	0.001205
1.532,	0.001242
1.534,	0.00128
1.536,	0.001318
1.538,	0.001359
1.54,	0.001396
1.542,	0.001436
1.544,	0.001472
1.546,	0.001514
1.548,	0.001551
1.55,	0.001591
1.552,	0.001627
1.554,	0.00167
1.556,	0.001709
1.558,	0.00175
1.56,	0.001789
1.562,	0.001829
1.564,	0.001871
1.566,	0.00192
1.568,	0.001959
1.57,	0.001999
1.572,	0.002047
1.574,	0.00209
1.576,	0.002127
1.578,	0.002181
1.58,	0.002219
1.582,	0.002263
1.584,	0.002305
1.585,	0.002327

File: B1_VARIANCE_400_#6_Full-277mV.txt
Dec. 6, 2022   15:57:47
Linear Sweep Voltammetry
File: d:\current work\al_oer\electrochemical test data\batch 1\400\B1_VARIANCE_400_#6_Full-277mV.txt
Data Source:  Experiment
Instrument Model:  CHI660E
Header:
Note:

Init E (V) = 1.091

Final E (V) = 1.566

Scan Rate (V/s) = 0.010
Sample Interval (V) = 0.001
Quiet Time (sec) = 2
Sensitivity (A/V) = 0.001
Comp R (ohm) = 4.6

Results:

Channel 1:
Ep = 1.052V
ip = 8.726e-5A
Ah = 7.677e-4C

Potential/V, Current/A
1.091,   3.660e-4
1.093,   3.238e-4
1.095,   2.835e-4
1.097,   2.514e-4
1.099,   2.259e-4
1.101,   2.056e-4
1.103,   1.892e-4
1.105,   1.757e-4
1.107,   1.646e-4
1.109,   1.555e-4
1.111,   1.480e-4
1.113,   1.416e-4
1.115,   1.362e-4
1.117,   1.320e-4
1.119,   1.283e-4
1.121,   1.251e-4
1.123,   1.226e-4
1.125,   1.206e-4
1.127,   1.189e-4
1.129,   1.174e-4
1.131,   1.163e-4
1.133,   1.156e-4
1.135,   1.150e-4
1.137,   1.145e-4
1.139,   1.142e-4
1.141,   1.142e-4
1.143,   1.143e-4
1.145,   1.145e-4
1.147,   1.147e-4
1.149,   1.152e-4
1.151,   1.159e-4
1.153,   1.164e-4
1.155,   1.171e-4
1.157,   1.181e-4
1.159,   1.190e-4
1.161,   1.199e-4
1.163,   1.210e-4
1.165,   1.223e-4
1.167,   1.234e-4
1.169,   1.247e-4
1.171,   1.261e-4
1.173,   1.276e-4
1.175,   1.293e-4
1.177,   1.309e-4
1.179,   1.325e-4
1.181,   1.346e-4
1.183,   1.366e-4
1.185,   1.385e-4
1.187,   1.406e-4
1.189,   1.431e-4
1.191,   1.454e-4
1.193,   1.478e-4
1.195,   1.503e-4
1.197,   1.530e-4
1.199,   1.559e-4
1.201,   1.588e-4
1.203,   1.615e-4
1.205,   1.646e-4
1.207,   1.677e-4
1.209,   1.706e-4
1.211,   1.735e-4
1.213,   1.767e-4
1.215,   1.798e-4
1.217,   1.824e-4
1.219,   1.851e-4
1.221,   1.880e-4
1.223,   1.904e-4
1.225,   1.925e-4
1.227,   1.948e-4
1.229,   1.966e-4
1.231,   1.982e-4
1.233,   1.995e-4
1.235,   2.005e-4
1.237,   2.015e-4
1.239,   2.021e-4
1.241,   2.023e-4
1.243,   2.021e-4
1.245,   2.020e-4
1.247,   2.016e-4
1.249,   2.007e-4
1.251,   1.997e-4
1.253,   1.990e-4
1.255,   1.976e-4
1.257,   1.959e-4
1.259,   1.944e-4
1.261,   1.930e-4
1.263,   1.913e-4
1.265,   1.897e-4
1.267,   1.877e-4
1.269,   1.862e-4
1.271,   1.844e-4
1.273,   1.827e-4
1.275,   1.808e-4
1.277,   1.795e-4
1.279,   1.781e-4
1.281,   1.765e-4
1.283,   1.749e-4
1.285,   1.742e-4
1.287,   1.729e-4
1.289,   1.717e-4
1.291,   1.708e-4
1.293,   1.701e-4
1.295,   1.694e-4
1.297,   1.683e-4
1.299,   1.676e-4
1.301,   1.675e-4
1.303,   1.670e-4
1.305,   1.663e-4
1.307,   1.660e-4
1.309,   1.662e-4
1.311,   1.660e-4
1.313,   1.655e-4
1.315,   1.654e-4
1.317,   1.662e-4
1.319,   1.659e-4
1.321,   1.657e-4
1.323,   1.657e-4
1.325,   1.662e-4
1.327,   1.663e-4
1.329,   1.665e-4
1.331,   1.663e-4
1.333,   1.670e-4
1.335,   1.673e-4
1.337,   1.671e-4
1.339,   1.672e-4
1.341,   1.681e-4
1.343,   1.683e-4
1.345,   1.684e-4
1.347,   1.683e-4
1.349,   1.692e-4
1.351,   1.695e-4
1.353,   1.696e-4
1.355,   1.703e-4
1.357,   1.709e-4
1.359,   1.715e-4
1.361,   1.717e-4
1.363,   1.721e-4
1.365,   1.730e-4
1.367,   1.740e-4
1.369,   1.742e-4
1.371,   1.747e-4
1.373,   1.758e-4
1.375,   1.767e-4
1.377,   1.770e-4
1.379,   1.776e-4
1.381,   1.792e-4
1.383,   1.797e-4
1.385,   1.803e-4
1.387,   1.813e-4
1.389,   1.825e-4
1.391,   1.835e-4
1.393,   1.844e-4
1.395,   1.850e-4
1.397,   1.865e-4
1.399,   1.876e-4
1.401,   1.883e-4
1.403,   1.893e-4
1.405,   1.909e-4
1.407,   1.922e-4
1.409,   1.936e-4
1.411,   1.945e-4
1.413,   1.969e-4
1.415,   1.985e-4
1.417,   2.003e-4
1.419,   2.036e-4
1.421,   2.057e-4
1.423,   2.082e-4
1.425,   2.111e-4
1.427,   2.144e-4
1.429,   2.188e-4
1.431,   2.232e-4
1.433,   2.277e-4
1.435,   2.331e-4
1.437,   2.397e-4
1.439,   2.463e-4
1.441,   2.535e-4
1.443,   2.615e-4
1.445,   2.716e-4
1.447,   2.816e-4
1.449,   2.925e-4
1.451,   3.051e-4
1.453,   3.192e-4
1.455,   3.344e-4
1.457,   3.505e-4
1.459,   3.686e-4
1.461,   3.895e-4
1.463,   4.114e-4
1.465,   4.352e-4
1.467,   4.619e-4
1.469,   4.916e-4
1.471,   5.230e-4
1.473,   5.573e-4
1.475,   5.954e-4
1.477,   6.375e-4
1.479,   6.825e-4
1.481,   7.312e-4
1.483,   7.846e-4
1.485,   8.429e-4
1.487,   9.056e-4
1.489,   9.743e-4
1.491,   1.048e-3
1.493,   1.128e-3
1.495,   1.214e-3
1.497,   1.306e-3
1.499,   1.405e-3
1.501,   1.510e-3
1.503,   1.623e-3
1.505,   1.744e-3
1.507,   1.874e-3
1.509,   2.012e-3
1.511,   2.157e-3
1.513,   2.311e-3
1.515,   2.472e-3
1.517,   2.640e-3
1.519,   2.820e-3
1.521,   3.009e-3
1.523,   3.209e-3
1.525,   3.421e-3
1.527,   3.640e-3
1.529,   3.863e-3
1.531,   4.116e-3
1.533,   4.383e-3
1.535,   4.677e-3
1.537,   4.979e-3
1.539,   5.293e-3
1.541,   5.621e-3
1.543,   5.971e-3
1.545,   6.333e-3
1.547,   6.718e-3
1.549,   7.117e-3
1.551,   7.546e-3
1.553,   7.977e-3
1.555,   8.451e-3
1.557,   8.917e-3
1.559,   9.428e-3
1.561,   9.929e-3
1.563,   1.007e-2
1.565,   1.007e-2
1.566,   1.007e-2