Folder: DASH/Experimental Records, Raw Data, and Supplementary Notes and Figures/batch3/final400 (part 2)

File: B3_BEST_400_#3_High_Quality(#16)-219mV.txt
Feb. 21, 2023   16:29:36
Linear Sweep Voltammetry
File: d:\current work\al_oer\electrochemical test data\batch 3\400\B3_BEST_400_#3_High_Quality(#16)-219mV.txt
Data Source:  Experiment
Instrument Model:  CHI660E
Header:
Note:

Init E (V) = 1.099

Final E (V) = 1.517

Scan Rate (V/s) = 0.010
Sample Interval (V) = 0.001
Quiet Time (sec) = 2
Sensitivity (A/V) = 0.001
Comp R (ohm) = 5.6

Results:

Channel 1:

Potential/V, Current/A
1.099,   4.668e-4
1.101,   3.945e-4
1.103,   3.330e-4
1.105,   2.871e-4
1.107,   2.547e-4
1.109,   2.302e-4
1.111,   2.112e-4
1.113,   1.965e-4
1.115,   1.846e-4
1.117,   1.755e-4
1.119,   1.678e-4
1.121,   1.615e-4
1.123,   1.560e-4
1.125,   1.515e-4
1.127,   1.478e-4
1.129,   1.443e-4
1.131,   1.418e-4
1.133,   1.394e-4
1.135,   1.375e-4
1.137,   1.357e-4
1.139,   1.369e-4
1.141,   1.339e-4
1.143,   1.315e-4
1.145,   1.304e-4
1.147,   1.291e-4
1.149,   1.284e-4
1.151,   1.278e-4
1.153,   1.270e-4
1.155,   1.263e-4
1.157,   1.259e-4
1.159,   1.258e-4
1.161,   1.252e-4
1.163,   1.247e-4
1.165,   1.247e-4
1.167,   1.245e-4
1.169,   1.242e-4
1.171,   1.241e-4
1.173,   1.240e-4
1.175,   1.238e-4
1.177,   1.236e-4
1.179,   1.235e-4
1.181,   1.234e-4
1.183,   1.235e-4
1.185,   1.233e-4
1.187,   1.232e-4
1.189,   1.232e-4
1.191,   1.235e-4
1.193,   1.234e-4
1.195,   1.230e-4
1.197,   1.236e-4
1.199,   1.235e-4
1.201,   1.233e-4
1.203,   1.234e-4
1.205,   1.236e-4
1.207,   1.236e-4
1.209,   1.238e-4
1.211,   1.237e-4
1.213,   1.239e-4
1.215,   1.240e-4
1.217,   1.240e-4
1.219,   1.241e-4
1.221,   1.243e-4
1.223,   1.245e-4
1.225,   1.246e-4
1.227,   1.245e-4
1.229,   1.251e-4
1.231,   1.250e-4
1.233,   1.249e-4
1.235,   1.253e-4
1.237,   1.253e-4
1.239,   1.256e-4
1.241,   1.257e-4
1.243,   1.255e-4
1.245,   1.259e-4
1.247,   1.261e-4
1.249,   1.263e-4
1.251,   1.262e-4
1.253,   1.262e-4
1.255,   1.267e-4
1.257,   1.265e-4
1.259,   1.264e-4
1.261,   1.270e-4
1.263,   1.271e-4
1.265,   1.271e-4
1.267,   1.272e-4
1.269,   1.272e-4
1.271,   1.274e-4
1.273,   1.275e-4
1.275,   1.275e-4
1.277,   1.278e-4
1.279,   1.279e-4
1.281,   1.278e-4
1.283,   1.280e-4
1.285,   1.283e-4
1.287,   1.286e-4
1.289,   1.284e-4
1.291,   1.284e-4
1.293,   1.288e-4
1.295,   1.288e-4
1.297,   1.289e-4
1.299,   1.291e-4
1.301,   1.293e-4
1.303,   1.294e-4
1.305,   1.296e-4
1.307,   1.295e-4
1.309,   1.298e-4
1.311,   1.301e-4
1.313,   1.302e-4
1.315,   1.303e-4
1.317,   1.306e-4
1.319,   1.310e-4
1.321,   1.312e-4
1.323,   1.312e-4
1.325,   1.324e-4
1.327,   1.322e-4
1.329,   1.324e-4
1.331,   1.329e-4
1.333,   1.332e-4
1.335,   1.336e-4
1.337,   1.339e-4
1.339,   1.342e-4
1.341,   1.348e-4
1.343,   1.353e-4
1.345,   1.358e-4
1.347,   1.361e-4
1.349,   1.371e-4
1.351,   1.381e-4
1.353,   1.384e-4
1.355,   1.390e-4
1.357,   1.401e-4
1.359,   1.411e-4
1.361,   1.421e-4
1.363,   1.435e-4
1.365,   1.450e-4
1.367,   1.465e-4
1.369,   1.484e-4
1.371,   1.500e-4
1.373,   1.525e-4
1.375,   1.551e-4
1.377,   1.577e-4
1.379,   1.614e-4
1.381,   1.652e-4
1.383,   1.695e-4
1.385,   1.738e-4
1.387,   1.791e-4
1.389,   1.859e-4
1.391,   1.931e-4
1.393,   2.013e-4
1.395,   2.109e-4
1.397,   2.220e-4
1.399,   2.350e-4
1.401,   2.496e-4
1.403,   2.658e-4
1.405,   2.849e-4
1.407,   3.061e-4
1.409,   3.303e-4
1.411,   3.573e-4
1.413,   3.880e-4
1.415,   4.221e-4
1.417,   4.605e-4
1.419,   5.027e-4
1.421,   5.503e-4
1.423,   6.021e-4
1.425,   6.592e-4
1.427,   7.222e-4
1.429,   7.916e-4
1.431,   8.668e-4
1.433,   9.486e-4
1.435,   1.037e-3
1.437,   1.132e-3
1.439,   1.235e-3
1.441,   1.345e-3
1.443,   1.464e-3
1.445,   1.588e-3
1.447,   1.722e-3
1.449,   1.864e-3
1.451,   2.015e-3
1.453,   2.176e-3
1.455,   2.345e-3
1.457,   2.520e-3
1.459,   2.707e-3
1.461,   2.898e-3
1.463,   3.103e-3
1.465,   3.314e-3
1.467,   3.524e-3
1.469,   3.751e-3
1.471,   3.976e-3
1.473,   4.215e-3
1.475,   4.401e-3
1.477,   4.633e-3
1.479,   4.879e-3
1.481,   5.123e-3
1.483,   5.376e-3
1.485,   5.623e-3
1.487,   5.870e-3
1.489,   6.123e-3
1.491,   6.890e-3
1.493,   7.546e-3
1.495,   7.796e-3
1.497,   8.047e-3
1.499,   8.320e-3
1.501,   8.559e-3
1.503,   8.811e-3
1.505,   9.035e-3
1.507,   9.275e-3
1.509,   9.479e-3
1.511,   9.686e-3
1.513,   9.872e-3
1.515,   1.006e-2
1.517,   1.006e-2

File: B3_BEST_400_#4_Full-207mV.txt
Feb. 21, 2023   15:02:27
Linear Sweep Voltammetry
File: d:\current work\al_oer\electrochemical test data\batch 3\400\B3_BEST_400_#4_Full-207mV.txt
Data Source:  Experiment
Instrument Model:  CHI660E
Header:
Note:

Init E (V) = 1.099

Final E (V) = 1.476

Scan Rate (V/s) = 0.010
Sample Interval (V) = 0.001
Quiet Time (sec) = 2
Sensitivity (A/V) = 0.001
Comp R (ohm) = 5.1

Results:

Channel 1:

Potential/V, Current/A
1.099,   1.970e-4
1.101,   2.065e-4
1.103,   1.833e-4
1.105,   1.667e-4
1.107,   1.557e-4
1.109,   1.477e-4
1.111,   1.412e-4
1.113,   1.363e-4
1.115,   1.324e-4
1.117,   1.302e-4
1.119,   1.279e-4
1.121,   1.254e-4
1.123,   1.239e-4
1.125,   1.229e-4
1.127,   1.216e-4
1.129,   1.204e-4
1.131,   1.196e-4
1.133,   1.195e-4
1.135,   1.188e-4
1.137,   1.180e-4
1.139,   1.176e-4
1.141,   1.179e-4
1.143,   1.174e-4
1.145,   1.172e-4
1.147,   1.168e-4
1.149,   1.170e-4
1.151,   1.172e-4
1.153,   1.167e-4
1.155,   1.169e-4
1.157,   1.174e-4
1.159,   1.175e-4
1.161,   1.170e-4
1.163,   1.173e-4
1.165,   1.181e-4
1.167,   1.179e-4
1.169,   1.178e-4
1.171,   1.184e-4
1.173,   1.187e-4
1.175,   1.188e-4
1.177,   1.190e-4
1.179,   1.191e-4
1.181,   1.198e-4
1.183,   1.203e-4
1.185,   1.199e-4
1.187,   1.205e-4
1.189,   1.209e-4
1.191,   1.213e-4
1.193,   1.213e-4
1.195,   1.215e-4
1.197,   1.225e-4
1.199,   1.226e-4
1.201,   1.223e-4
1.203,   1.230e-4
1.205,   1.236e-4
1.207,   1.237e-4
1.209,   1.242e-4
1.211,   1.240e-4
1.213,   1.248e-4
1.215,   1.248e-4
1.217,   1.247e-4
1.219,   1.251e-4
1.221,   1.259e-4
1.223,   1.258e-4
1.225,   1.257e-4
1.227,   1.258e-4
1.229,   1.268e-4
1.231,   1.265e-4
1.233,   1.265e-4
1.235,   1.268e-4
1.237,   1.272e-4
1.239,   1.271e-4
1.241,   1.268e-4
1.243,   1.265e-4
1.245,   1.277e-4
1.247,   1.276e-4
1.249,   1.274e-4
1.251,   1.274e-4
1.253,   1.278e-4
1.255,   1.275e-4
1.257,   1.271e-4
1.259,   1.268e-4
1.261,   1.275e-4
1.263,   1.273e-4
1.265,   1.269e-4
1.267,   1.270e-4
1.269,   1.274e-4
1.271,   1.269e-4
1.273,   1.268e-4
1.275,   1.264e-4
1.277,   1.270e-4
1.279,   1.268e-4
1.281,   1.270e-4
1.283,   1.271e-4
1.285,   1.282e-4
1.287,   1.276e-4
1.289,   1.270e-4
1.291,   1.262e-4
1.293,   1.265e-4
1.295,   1.269e-4
1.297,   1.267e-4
1.299,   1.276e-4
1.301,   1.277e-4
1.303,   1.273e-4
1.305,   1.264e-4
1.307,   1.260e-4
1.309,   1.273e-4
1.311,   1.282e-4
1.313,   1.277e-4
1.315,   1.263e-4
1.317,   1.271e-4
1.319,   1.286e-4
1.321,   1.279e-4
1.323,   1.267e-4
1.325,   1.292e-4
1.327,   1.294e-4
1.329,   1.275e-4
1.331,   1.299e-4
1.333,   1.297e-4
1.335,   1.294e-4
1.337,   1.317e-4
1.339,   1.295e-4
1.341,   1.331e-4
1.343,   1.318e-4
1.345,   1.325e-4
1.347,   1.328e-4
1.349,   1.349e-4
1.351,   1.346e-4
1.353,   1.375e-4
1.355,   1.363e-4
1.357,   1.391e-4
1.359,   1.412e-4
1.361,   1.415e-4
1.363,   1.425e-4
1.365,   1.466e-4
1.367,   1.476e-4
1.369,   1.498e-4
1.371,   1.541e-4
1.373,   1.574e-4
1.375,   1.603e-4
1.377,   1.658e-4
1.379,   1.687e-4
1.381,   1.771e-4
1.383,   1.796e-4
1.385,   1.914e-4
1.387,   2.000e-4
1.389,   2.086e-4
1.391,   2.192e-4
1.393,   2.390e-4
1.395,   2.488e-4
1.397,   2.741e-4
1.399,   2.809e-4
1.401,   3.049e-4
1.403,   3.238e-4
1.405,   3.582e-4
1.407,   3.974e-4
1.409,   4.323e-4
1.411,   4.826e-4
1.413,   5.171e-4
1.415,   5.777e-4
1.417,   6.362e-4
1.419,   6.984e-4
1.421,   7.775e-4
1.423,   8.586e-4
1.425,   9.522e-4
1.427,   1.064e-3
1.429,   1.182e-3
1.431,   1.316e-3
1.433,   1.469e-3
1.435,   1.638e-3
1.437,   1.819e-3
1.439,   2.021e-3
1.441,   2.250e-3
1.443,   2.501e-3
1.445,   2.785e-3
1.447,   3.093e-3
1.449,   3.424e-3
1.451,   3.793e-3
1.453,   4.193e-3
1.455,   4.632e-3
1.457,   5.113e-3
1.459,   5.622e-3
1.461,   6.203e-3
1.463,   6.785e-3
1.465,   7.461e-3
1.467,   8.135e-3
1.469,   9.008e-3
1.471,   9.773e-3
1.473,   1.006e-2
1.475,   1.006e-2
1.476,   1.006e-2

File: B3_BEST_400_#5_Full-242mV.txt
Feb. 20, 2023   16:16:37
Linear Sweep Voltammetry
File: d:\current work\al_oer\electrochemical test data\batch 3\400\B3_BEST_400_#5_Full-242mV.txt
Data Source:  Experiment
Instrument Model:  CHI660E
Header:
Note:

Init E (V) = 1.099

Final E (V) = 1.597

Scan Rate (V/s) = 0.010
Sample Interval (V) = 0.001
Quiet Time (sec) = 2
Sensitivity (A/V) = 0.001
Comp R (ohm) = 6.0

Results:

Channel 1:

Potential/V, Current/A
1.099,   2.004e-4
1.101,   1.784e-4
1.103,   1.582e-4
1.105,   1.423e-4
1.107,   1.298e-4
1.109,   1.196e-4
1.111,   1.112e-4
1.113,   1.040e-4
1.115,   9.788e-5
1.117,   9.282e-5
1.119,   8.831e-5
1.121,   8.432e-5
1.123,   8.094e-5
1.125,   7.783e-5
1.127,   7.511e-5
1.129,   7.264e-5
1.131,   7.044e-5
1.133,   6.852e-5
1.135,   6.661e-5
1.137,   6.500e-5
1.139,   6.368e-5
1.141,   6.237e-5
1.143,   6.125e-5
1.145,   6.011e-5
1.147,   5.918e-5
1.149,   5.831e-5
1.151,   5.754e-5
1.153,   5.684e-5
1.155,   5.622e-5
1.157,   5.571e-5
1.159,   5.523e-5
1.161,   5.468e-5
1.163,   5.429e-5
1.165,   5.399e-5
1.167,   5.363e-5
1.169,   5.328e-5
1.171,   5.302e-5
1.173,   5.274e-5
1.175,   5.257e-5
1.177,   5.234e-5
1.179,   5.217e-5
1.181,   5.210e-5
1.183,   5.200e-5
1.185,   5.193e-5
1.187,   5.184e-5
1.189,   5.186e-5
1.191,   5.187e-5
1.193,   5.183e-5
1.195,   5.175e-5
1.197,   5.179e-5
1.199,   5.180e-5
1.201,   5.178e-5
1.203,   5.188e-5
1.205,   5.197e-5
1.207,   5.204e-5
1.209,   5.204e-5
1.211,   5.204e-5
1.213,   5.223e-5
1.215,   5.232e-5
1.217,   5.237e-5
1.219,   5.245e-5
1.221,   5.268e-5
1.223,   5.273e-5
1.225,   5.280e-5
1.227,   5.289e-5
1.229,   5.309e-5
1.231,   5.315e-5
1.233,   5.323e-5
1.235,   5.340e-5
1.237,   5.360e-5
1.239,   5.360e-5
1.241,   5.368e-5
1.243,   5.371e-5
1.245,   5.390e-5
1.247,   5.391e-5
1.249,   5.401e-5
1.251,   5.409e-5
1.253,   5.424e-5
1.255,   5.437e-5
1.257,   5.440e-5
1.259,   5.439e-5
1.261,   5.463e-5
1.263,   5.462e-5
1.265,   5.470e-5
1.267,   5.483e-5
1.269,   5.490e-5
1.271,   5.497e-5
1.273,   5.517e-5
1.275,   5.531e-5
1.277,   5.543e-5
1.279,   5.543e-5
1.281,   5.549e-5
1.283,   5.555e-5
1.285,   5.571e-5
1.287,   5.584e-5
1.289,   5.590e-5
1.291,   5.591e-5
1.293,   5.610e-5
1.295,   5.619e-5
1.297,   5.639e-5
1.299,   5.652e-5
1.301,   5.664e-5
1.303,   5.668e-5
1.305,   5.684e-5
1.307,   5.693e-5
1.309,   5.729e-5
1.311,   5.739e-5
1.313,   5.753e-5
1.315,   5.767e-5
1.317,   5.794e-5
1.319,   5.801e-5
1.321,   5.831e-5
1.323,   5.854e-5
1.325,   5.896e-5
1.327,   5.920e-5
1.329,   5.934e-5
1.331,   5.970e-5
1.333,   5.999e-5
1.335,   6.032e-5
1.337,   6.075e-5
1.339,   6.105e-5
1.341,   6.160e-5
1.343,   6.195e-5
1.345,   6.228e-5
1.347,   6.280e-5
1.349,   6.335e-5
1.351,   6.386e-5
1.353,   6.434e-5
1.355,   6.497e-5
1.357,   6.563e-5
1.359,   6.631e-5
1.361,   6.706e-5
1.363,   6.802e-5
1.365,   6.895e-5
1.367,   6.995e-5
1.369,   7.107e-5
1.371,   7.225e-5
1.373,   7.373e-5
1.375,   7.521e-5
1.377,   7.694e-5
1.379,   7.889e-5
1.381,   8.097e-5
1.383,   8.332e-5
1.385,   8.605e-5
1.387,   8.895e-5
1.389,   9.247e-5
1.391,   9.636e-5
1.393,   1.007e-4
1.395,   1.056e-4
1.397,   1.112e-4
1.399,   1.179e-4
1.401,   1.249e-4
1.403,   1.331e-4
1.405,   1.422e-4
1.407,   1.525e-4
1.409,   1.641e-4
1.411,   1.771e-4
1.413,   1.918e-4
1.415,   2.079e-4
1.417,   2.258e-4
1.419,   2.457e-4
1.421,   2.677e-4
1.423,   2.917e-4
1.425,   3.180e-4
1.427,   3.469e-4
1.429,   3.782e-4
1.431,   4.127e-4
1.433,   4.500e-4
1.435,   4.904e-4
1.437,   5.337e-4
1.439,   5.802e-4
1.441,   6.302e-4
1.443,   6.835e-4
1.445,   7.418e-4
1.447,   8.031e-4
1.449,   8.683e-4
1.451,   9.364e-4
1.453,   1.009e-3
1.455,   1.085e-3
1.457,   1.164e-3
1.459,   1.248e-3
1.461,   1.339e-3
1.463,   1.432e-3
1.465,   1.528e-3
1.467,   1.628e-3
1.469,   1.730e-3
1.471,   1.835e-3
1.473,   1.944e-3
1.475,   2.057e-3
1.477,   2.173e-3
1.479,   2.291e-3
1.481,   2.413e-3
1.483,   2.535e-3
1.485,   2.657e-3
1.487,   2.782e-3
1.489,   2.916e-3
1.491,   3.047e-3
1.493,   3.179e-3
1.495,   3.308e-3
1.497,   3.448e-3
1.499,   3.583e-3
1.501,   3.715e-3
1.503,   3.849e-3
1.505,   3.979e-3
1.507,   4.118e-3
1.509,   4.255e-3
1.511,   4.393e-3
1.513,   4.547e-3
1.515,   4.679e-3
1.517,   4.815e-3
1.519,   4.944e-3
1.521,   5.067e-3
1.523,   5.205e-3
1.525,   5.361e-3
1.527,   5.495e-3
1.529,   5.644e-3
1.531,   5.758e-3
1.533,   5.881e-3
1.535,   6.044e-3
1.537,   6.157e-3
1.539,   6.299e-3
1.541,   6.421e-3
1.543,   6.543e-3
1.545,   6.677e-3
1.547,   6.800e-3
1.549,   6.962e-3
1.551,   7.094e-3
1.553,   7.229e-3
1.555,   7.360e-3
1.557,   7.485e-3
1.559,   7.616e-3
1.561,   7.780e-3
1.563,   7.888e-3
1.565,   8.027e-3
1.567,   8.139e-3
1.569,   8.259e-3
1.571,   8.371e-3
1.573,   8.514e-3
1.575,   8.653e-3
1.577,   8.744e-3
1.579,   8.834e-3
1.581,   8.987e-3
1.583,   9.069e-3
1.585,   9.154e-3
1.587,   9.309e-3
1.589,   9.462e-3
1.591,   1.006e-2
1.593,   1.006e-2
1.595,   1.006e-2
1.597,   1.006e-2

File: B3_BEST_400_#7_Full-209mV.txt
Feb. 21, 2023   15:26:22
Linear Sweep Voltammetry
File: d:\current work\al_oer\electrochemical test data\batch 3\400\B3_BEST_400_#7_Full-209mV.txt
Data Source:  Experiment
Instrument Model:  CHI660E
Header:
Note:

Init E (V) = 1.098

Final E (V) = 1.601

Scan Rate (V/s) = 0.010
Sample Interval (V) = 0.001
Quiet Time (sec) = 2
Sensitivity (A/V) = 0.001
Comp R (ohm) = 5.0

Results:

Channel 1:
Ep = 1.280V
ip = 9.946e-3A
Ah = 4.536e-2C

Potential/V, Current/A
1.098,   1.959e-4
1.100,   2.053e-4
1.102,   1.852e-4
1.104,   1.699e-4
1.106,   1.590e-4
1.108,   1.499e-4
1.110,   1.429e-4
1.112,   1.371e-4
1.114,   1.323e-4
1.116,   1.288e-4
1.118,   1.257e-4
1.120,   1.226e-4
1.122,   1.202e-4
1.124,   1.184e-4
1.126,   1.166e-4
1.128,   1.149e-4
1.130,   1.134e-4
1.132,   1.127e-4
1.134,   1.117e-4
1.136,   1.106e-4
1.138,   1.100e-4
1.140,   1.094e-4
1.142,   1.089e-4
1.144,   1.085e-4
1.146,   1.077e-4
1.148,   1.079e-4
1.150,   1.074e-4
1.152,   1.070e-4
1.154,   1.066e-4
1.156,   1.068e-4
1.158,   1.068e-4
1.160,   1.065e-4
1.162,   1.062e-4
1.164,   1.067e-4
1.166,   1.066e-4
1.168,   1.064e-4
1.170,   1.067e-4
1.172,   1.069e-4
1.174,   1.069e-4
1.176,   1.069e-4
1.178,   1.067e-4
1.180,   1.072e-4
1.182,   1.074e-4
1.184,   1.071e-4
1.186,   1.073e-4
1.188,   1.079e-4
1.190,   1.079e-4
1.192,   1.077e-4
1.194,   1.079e-4
1.196,   1.087e-4
1.198,   1.087e-4
1.200,   1.082e-4
1.202,   1.086e-4
1.204,   1.089e-4
1.206,   1.089e-4
1.208,   1.092e-4
1.210,   1.089e-4
1.212,   1.094e-4
1.214,   1.098e-4
1.216,   1.094e-4
1.218,   1.094e-4
1.220,   1.099e-4
1.222,   1.100e-4
1.224,   1.099e-4
1.226,   1.096e-4
1.228,   1.104e-4
1.230,   1.102e-4
1.232,   1.097e-4
1.234,   1.104e-4
1.236,   1.104e-4
1.238,   1.102e-4
1.240,   1.102e-4
1.242,   1.101e-4
1.244,   1.107e-4
1.246,   1.107e-4
1.248,   1.103e-4
1.250,   1.105e-4
1.252,   1.105e-4
1.254,   1.106e-4
1.256,   1.104e-4
1.258,   1.102e-4
1.260,   1.110e-4
1.262,   1.108e-4
1.264,   1.104e-4
1.266,   1.106e-4
1.268,   1.109e-4
1.270,   1.110e-4
1.272,   1.111e-4
1.274,   1.106e-4
1.276,   1.110e-4
1.278,   1.110e-4
1.280,   1.108e-4
1.282,   1.108e-4
1.284,   1.112e-4
1.286,   1.114e-4
1.288,   1.112e-4
1.290,   1.113e-4
1.292,   1.119e-4
1.294,   1.118e-4
1.296,   1.116e-4
1.298,   1.120e-4
1.300,   1.122e-4
1.302,   1.125e-4
1.304,   1.125e-4
1.306,   1.126e-4
1.308,   1.132e-4
1.310,   1.135e-4
1.312,   1.133e-4
1.314,   1.134e-4
1.316,   1.142e-4
1.318,   1.145e-4
1.320,   1.144e-4
1.322,   1.147e-4
1.324,   1.162e-4
1.326,   1.159e-4
1.328,   1.158e-4
1.330,   1.164e-4
1.332,   1.171e-4
1.334,   1.177e-4
1.336,   1.180e-4
1.338,   1.180e-4
1.340,   1.193e-4
1.342,   1.198e-4
1.344,   1.199e-4
1.346,   1.208e-4
1.348,   1.218e-4
1.350,   1.226e-4
1.352,   1.233e-4
1.354,   1.244e-4
1.356,   1.258e-4
1.358,   1.274e-4
1.360,   1.281e-4
1.362,   1.304e-4
1.364,   1.321e-4
1.366,   1.344e-4
1.368,   1.367e-4
1.370,   1.391e-4
1.372,   1.429e-4
1.374,   1.467e-4
1.376,   1.505e-4
1.378,   1.553e-4
1.380,   1.611e-4
1.382,   1.675e-4
1.384,   1.746e-4
1.386,   1.826e-4
1.388,   1.929e-4
1.390,   2.035e-4
1.392,   2.158e-4
1.394,   2.301e-4
1.396,   2.469e-4
1.398,   2.652e-4
1.400,   2.867e-4
1.402,   3.105e-4
1.404,   3.386e-4
1.406,   3.691e-4
1.408,   4.039e-4
1.410,   4.432e-4
1.412,   4.879e-4
1.414,   5.386e-4
1.416,   5.927e-4
1.418,   6.547e-4
1.420,   7.322e-4
1.422,   8.070e-4
1.424,   8.912e-4
1.426,   9.874e-4
1.428,   1.095e-3
1.430,   1.211e-3
1.432,   1.342e-3
1.434,   1.482e-3
1.436,   1.641e-3
1.438,   1.813e-3
1.440,   2.002e-3
1.442,   2.203e-3
1.444,   2.435e-3
1.446,   2.674e-3
1.448,   2.936e-3
1.450,   3.223e-3
1.452,   3.531e-3
1.454,   3.892e-3
1.456,   4.236e-3
1.458,   4.629e-3
1.460,   5.030e-3
1.462,   5.461e-3
1.464,   6.119e-3
1.466,   6.675e-3
1.468,   7.175e-3
1.470,   7.908e-3
1.472,   8.520e-3
1.474,   9.097e-3
1.476,   9.758e-3
1.478,   1.006e-2
1.480,   1.006e-2
1.482,   1.006e-2
1.484,   1.006e-2
1.486,   1.006e-2
1.488,   1.006e-2
1.490,   1.006e-2
1.492,   1.006e-2
1.494,   1.006e-2
1.496,   1.006e-2
1.498,   1.006e-2
1.500,   1.006e-2
1.502,   1.006e-2
1.504,   1.006e-2
1.506,   1.006e-2
1.508,   1.006e-2
1.510,   1.006e-2
1.512,   1.006e-2
1.514,   1.006e-2
1.516,   1.006e-2
1.518,   1.006e-2
1.520,   1.006e-2
1.522,   1.006e-2
1.524,   1.006e-2
1.526,   1.006e-2
1.528,   1.006e-2
1.530,   1.006e-2
1.532,   1.006e-2
1.534,   1.006e-2
1.536,   1.006e-2
1.538,   1.006e-2
1.540,   1.006e-2
1.542,   1.006e-2
1.544,   1.006e-2
1.546,   1.006e-2
1.548,   1.006e-2
1.550,   1.006e-2
1.552,   1.006e-2
1.554,   1.006e-2
1.556,   1.006e-2
1.558,   1.006e-2
1.560,   1.006e-2
1.562,   1.006e-2
1.564,   1.006e-2
1.566,   1.006e-2
1.568,   1.006e-2
1.570,   1.006e-2
1.572,   1.006e-2
1.574,   1.006e-2
1.576,   1.006e-2
1.578,   1.006e-2
1.580,   1.006e-2
1.582,   1.006e-2
1.584,   1.006e-2
1.586,   1.006e-2
1.588,   1.006e-2
1.590,   1.006e-2
1.592,   1.006e-2
1.594,   1.006e-2
1.596,   1.006e-2
1.598,   1.006e-2
1.600,   1.006e-2
1.601,   1.006e-2

File: B3_BEST_400_#8_Full-196mV.txt
Feb. 21, 2023   15:36:43
Linear Sweep Voltammetry
File: d:\current work\al_oer\electrochemical test data\batch 3\400\B3_BEST_400_#8_Full-196mV.txt
Data Source:  Experiment
Instrument Model:  CHI660E
Header:
Note:

Init E (V) = 1.099

Final E (V) = 1.498

Scan Rate (V/s) = 0.010
Sample Interval (V) = 0.001
Quiet Time (sec) = 2
Sensitivity (A/V) = 0.001
Comp R (ohm) = 5.1

Results:

Channel 1:

Potential/V, Current/A
1.099,   3.282e-4
1.101,   3.227e-4
1.103,   2.892e-4
1.105,   2.651e-4
1.107,   2.486e-4
1.109,   2.351e-4
1.111,   2.241e-4
1.113,   2.163e-4
1.115,   2.094e-4
1.117,   2.050e-4
1.119,   2.006e-4
1.121,   1.968e-4
1.123,   1.937e-4
1.125,   1.918e-4
1.127,   1.900e-4
1.129,   1.880e-4
1.131,   1.865e-4
1.133,   1.864e-4
1.135,   1.853e-4
1.137,   1.844e-4
1.139,   1.842e-4
1.141,   1.841e-4
1.143,   1.839e-4
1.145,   1.838e-4
1.147,   1.835e-4
1.149,   1.841e-4
1.151,   1.844e-4
1.153,   1.842e-4
1.155,   1.843e-4
1.157,   1.850e-4
1.159,   1.857e-4
1.161,   1.857e-4
1.163,   1.861e-4
1.165,   1.874e-4
1.167,   1.876e-4
1.169,   1.879e-4
1.171,   1.890e-4
1.173,   1.896e-4
1.175,   1.902e-4
1.177,   1.904e-4
1.179,   1.907e-4
1.181,   1.922e-4
1.183,   1.927e-4
1.185,   1.928e-4
1.187,   1.933e-4
1.189,   1.944e-4
1.191,   1.948e-4
1.193,   1.950e-4
1.195,   1.953e-4
1.197,   1.965e-4
1.199,   1.967e-4
1.201,   1.967e-4
1.203,   1.974e-4
1.205,   1.981e-4
1.207,   1.982e-4
1.209,   1.987e-4
1.211,   1.986e-4
1.213,   1.992e-4
1.215,   1.996e-4
1.217,   1.996e-4
1.219,   1.994e-4
1.221,   1.999e-4
1.223,   1.998e-4
1.225,   1.992e-4
1.227,   1.993e-4
1.229,   2.000e-4
1.231,   1.996e-4
1.233,   1.994e-4
1.235,   1.997e-4
1.237,   1.995e-4
1.239,   1.987e-4
1.241,   1.984e-4
1.243,   1.982e-4
1.245,   1.986e-4
1.247,   1.984e-4
1.249,   1.975e-4
1.251,   1.970e-4
1.253,   1.975e-4
1.255,   1.969e-4
1.257,   1.960e-4
1.259,   1.957e-4
1.261,   1.966e-4
1.263,   1.955e-4
1.265,   1.947e-4
1.267,   1.949e-4
1.269,   1.943e-4
1.271,   1.943e-4
1.273,   1.938e-4
1.275,   1.932e-4
1.277,   1.940e-4
1.279,   1.933e-4
1.281,   1.923e-4
1.283,   1.920e-4
1.285,   1.923e-4
1.287,   1.925e-4
1.289,   1.919e-4
1.291,   1.913e-4
1.293,   1.921e-4
1.295,   1.914e-4
1.297,   1.909e-4
1.299,   1.919e-4
1.301,   1.919e-4
1.303,   1.913e-4
1.305,   1.918e-4
1.307,   1.915e-4
1.309,   1.923e-4
1.311,   1.926e-4
1.313,   1.920e-4
1.315,   1.925e-4
1.317,   1.933e-4
1.319,   1.936e-4
1.321,   1.940e-4
1.323,   1.945e-4
1.325,   1.961e-4
1.327,   1.959e-4
1.329,   1.962e-4
1.331,   1.976e-4
1.333,   1.989e-4
1.335,   1.997e-4
1.337,   2.004e-4
1.339,   2.011e-4
1.341,   2.038e-4
1.343,   2.049e-4
1.345,   2.059e-4
1.347,   2.075e-4
1.349,   2.098e-4
1.351,   2.116e-4
1.353,   2.136e-4
1.355,   2.157e-4
1.357,   2.198e-4
1.359,   2.218e-4
1.361,   2.244e-4
1.363,   2.290e-4
1.365,   2.329e-4
1.367,   2.364e-4
1.369,   2.413e-4
1.371,   2.458e-4
1.373,   2.530e-4
1.375,   2.590e-4
1.377,   2.657e-4
1.379,   2.745e-4
1.381,   2.845e-4
1.383,   2.965e-4
1.385,   3.072e-4
1.387,   3.219e-4
1.389,   3.408e-4
1.391,   3.588e-4
1.393,   3.805e-4
1.395,   4.078e-4
1.397,   4.373e-4
1.399,   4.732e-4
1.401,   5.137e-4
1.403,   5.590e-4
1.405,   6.143e-4
1.407,   6.759e-4
1.409,   7.497e-4
1.411,   8.300e-4
1.413,   9.220e-4
1.415,   1.027e-3
1.417,   1.143e-3
1.419,   1.276e-3
1.421,   1.424e-3
1.423,   1.593e-3
1.425,   1.776e-3
1.427,   1.982e-3
1.429,   2.210e-3
1.431,   2.462e-3
1.433,   2.736e-3
1.435,   3.040e-3
1.437,   3.375e-3
1.439,   3.738e-3
1.441,   4.151e-3
1.443,   4.568e-3
1.445,   5.023e-3
1.447,   5.518e-3
1.449,   6.059e-3
1.451,   6.683e-3
1.453,   7.381e-3
1.455,   8.057e-3
1.457,   8.781e-3
1.459,   9.588e-3
1.461,   1.006e-2
1.463,   1.006e-2
1.465,   1.006e-2
1.467,   1.006e-2
1.469,   1.006e-2
1.471,   1.006e-2
1.473,   1.006e-2
1.475,   1.006e-2
1.477,   1.006e-2
1.479,   1.006e-2
1.481,   1.006e-2
1.483,   1.006e-2
1.485,   1.006e-2
1.487,   1.006e-2
1.489,   1.006e-2
1.491,   1.006e-2
1.493,   1.006e-2
1.495,   1.006e-2
1.497,   1.006e-2
1.498,   1.006e-2