Folder: DASH/Experimental Records, Raw Data, and Supplementary Notes and Figures/batch3/final500

Note: README.md
# DASH
This is the online repository that stores code, data and supplementary figures of the research work: <Leveraging Data Mining, Active Learning, and Domain Adaptation in a Multi-Stage, Machine Learning-Driven Approach for the Efficient Discovery of Advanced Acidic Oxygen Evolution Electrocatalysts> by Rui Ding et. al. (https://arxiv.org/abs/2407.04877)
![Workflow Schematic](https://github.com/ruiding-uchicago/D.A.S.H./blob/main/Online%20Repository%20Figures/D.A.S.H.%20Workflow.jpg)
## Code Description

Our code is written and uploaded on GitHub in Jupyter notebook file format, which is already very easy to conduct and get results. Our code does not include providing a new python library, but users could track how we train machine learning models in Jupyter ipynb files. Also, we have provided all original dataset CSV files to drive the active learning flow. Additionally, we have detailed the python version and package environment used for this work, focusing on machine learning-related packages.

## Environment
This project was trained using Python version 3.9.12. Below is the list of machine learning-related packages and their versions used in this project on the local machine we used equipped with 2080 Ti GPU, users could install anaconda (https://www.anaconda.com/download) and using pip install to install the packages below for setting environment to run in the Jupyter notebook (https://docs.anaconda.com/ae-notebooks/user-guide/basic-tasks/apps/jupyter/index.html):

absl-py 1.2.0
ase 3.22.1
catboost 1.0.6
cython 0.29.28
dask 2022.2.1
deep-forest 0.1.7
gensim 4.1.2
h5py 3.6.0
keras 2.9.0
Keras-Preprocessing 1.1.2
keras-tcn 3.5.0
lightgbm 3.3.2
matplotlib 3.4.3
numpy 1.23.5
pandas 1.4.2
pytorch-lightning 2.0.1
pymatgen 2023.8.10
scikit-learn 1.0.2
scipy 1.8.0
scikit-opt  0.6.6
scikit-optimize 0.9.0
seaborn 0.11.2
tensorboard                  2.10.1
tensorboard-data-server      0.6.1
tensorboard-plugin-wit       1.8.1
tensorflow-estimator         2.10.0
tensorflow-gpu               2.10.0
tensorflow-io-gcs-filesystem 0.31.0
torch 2.0.0
torchvision 0.15.1
xgboost 1.6.2

File: B3_500_VARIANCE_#1_Full(#9)-466mV.txt
Feb. 22, 2023   14:11:10
Linear Sweep Voltammetry
File: d:\current work\al_oer\electrochemical test data\batch 3\500\B3_500_VARIANCE_#1_Full(#9)-466mV.txt
Data Source:  Experiment
Instrument Model:  CHI660E
Header:
Note:

Init E (V) = 1.100

Final E (V) = 1.716

Scan Rate (V/s) = 0.010
Sample Interval (V) = 0.001
Quiet Time (sec) = 2
Sensitivity (A/V) = 0.001
Comp R (ohm) = 5.0

Results:

Channel 1:

Potential/V, Current/A
1.100,   1.217e-5
1.103,   1.052e-5
1.106,   9.218e-6
1.109,   8.268e-6
1.112,   7.617e-6
1.115,   7.024e-6
1.118,   6.591e-6
1.121,   6.249e-6
1.124,   5.954e-6
1.127,   5.748e-6
1.130,   5.503e-6
1.133,   5.329e-6
1.136,   5.134e-6
1.139,   4.982e-6
1.142,   4.888e-6
1.145,   4.811e-6
1.148,   4.685e-6
1.151,   4.618e-6
1.154,   4.558e-6
1.157,   4.485e-6
1.160,   4.474e-6
1.163,   4.411e-6
1.166,   4.353e-6
1.169,   4.311e-6
1.172,   4.286e-6
1.175,   4.286e-6
1.178,   4.223e-6
1.181,   4.214e-6
1.184,   4.199e-6
1.187,   4.202e-6
1.190,   4.191e-6
1.193,   4.157e-6
1.196,   4.181e-6
1.199,   4.151e-6
1.202,   4.160e-6
1.205,   4.153e-6
1.208,   4.163e-6
1.211,   4.183e-6
1.214,   4.183e-6
1.217,   4.198e-6
1.220,   4.212e-6
1.223,   4.217e-6
1.226,   4.214e-6
1.229,   4.236e-6
1.232,   4.221e-6
1.235,   4.245e-6
1.238,   4.250e-6
1.241,   4.277e-6
1.244,   4.270e-6
1.247,   4.323e-6
1.250,   4.349e-6
1.253,   4.351e-6
1.256,   4.362e-6
1.259,   4.398e-6
1.262,   4.388e-6
1.265,   4.424e-6
1.268,   4.448e-6
1.271,   4.461e-6
1.274,   4.507e-6
1.277,   4.551e-6
1.280,   4.551e-6
1.283,   4.592e-6
1.286,   4.627e-6
1.289,   4.669e-6
1.292,   4.704e-6
1.295,   4.739e-6
1.298,   4.769e-6
1.301,   4.821e-6
1.304,   4.866e-6
1.307,   4.908e-6
1.310,   4.961e-6
1.313,   4.997e-6
1.316,   5.061e-6
1.319,   5.093e-6
1.322,   5.169e-6
1.325,   5.218e-6
1.328,   5.272e-6
1.331,   5.316e-6
1.334,   5.401e-6
1.337,   5.453e-6
1.340,   5.528e-6
1.343,   5.582e-6
1.346,   5.703e-6
1.349,   5.762e-6
1.352,   5.815e-6
1.355,   5.914e-6
1.358,   5.970e-6
1.361,   6.072e-6
1.364,   6.153e-6
1.367,   6.246e-6
1.370,   6.352e-6
1.373,   6.416e-6
1.376,   6.531e-6
1.379,   6.641e-6
1.382,   6.744e-6
1.385,   6.876e-6
1.388,   7.012e-6
1.391,   7.055e-6
1.394,   7.194e-6
1.397,   7.371e-6
1.400,   7.476e-6
1.403,   7.622e-6
1.406,   7.779e-6
1.409,   7.933e-6
1.412,   8.107e-6
1.415,   8.310e-6
1.418,   8.427e-6
1.421,   8.651e-6
1.424,   8.847e-6
1.427,   9.118e-6
1.430,   9.387e-6
1.433,   9.705e-6
1.436,   1.006e-5
1.439,   1.037e-5
1.442,   1.079e-5
1.445,   1.122e-5
1.448,   1.174e-5
1.451,   1.229e-5
1.454,   1.294e-5
1.457,   1.362e-5
1.460,   1.437e-5
1.463,   1.526e-5
1.466,   1.622e-5
1.469,   1.727e-5
1.472,   1.844e-5
1.475,   1.972e-5
1.478,   2.122e-5
1.481,   2.278e-5
1.484,   2.455e-5
1.487,   2.644e-5
1.490,   2.858e-5
1.493,   3.099e-5
1.496,   3.338e-5
1.499,   3.615e-5
1.502,   3.904e-5
1.505,   4.236e-5
1.508,   4.588e-5
1.511,   4.977e-5
1.514,   5.398e-5
1.517,   5.851e-5
1.520,   6.355e-5
1.523,   6.893e-5
1.526,   7.471e-5
1.529,   8.105e-5
1.532,   8.784e-5
1.535,   9.506e-5
1.538,   1.029e-4
1.541,   1.113e-4
1.544,   1.205e-4
1.547,   1.303e-4
1.550,   1.407e-4
1.553,   1.521e-4
1.556,   1.643e-4
1.559,   1.771e-4
1.562,   1.911e-4
1.565,   2.059e-4
1.568,   2.217e-4
1.571,   2.390e-4
1.574,   2.573e-4
1.577,   2.770e-4
1.580,   2.981e-4
1.583,   3.206e-4
1.586,   3.442e-4
1.589,   3.696e-4
1.592,   3.959e-4
1.595,   4.245e-4
1.598,   4.546e-4
1.601,   4.867e-4
1.604,   5.201e-4
1.607,   5.553e-4
1.610,   5.924e-4
1.613,   6.312e-4
1.616,   6.720e-4
1.619,   7.149e-4
1.622,   7.609e-4
1.625,   8.076e-4
1.628,   8.550e-4
1.631,   9.041e-4
1.634,   9.546e-4
1.637,   1.007e-3
1.640,   1.060e-3
1.643,   1.114e-3
1.646,   1.170e-3
1.649,   1.226e-3
1.652,   1.282e-3
1.655,   1.338e-3
1.658,   1.394e-3
1.661,   1.450e-3
1.664,   1.508e-3
1.667,   1.562e-3
1.670,   1.612e-3
1.673,   1.661e-3
1.676,   1.709e-3
1.679,   1.753e-3
1.682,   1.791e-3
1.685,   1.833e-3
1.688,   1.871e-3
1.691,   1.900e-3
1.694,   1.932e-3
1.697,   1.959e-3
1.700,   1.982e-3
1.703,   2.005e-3
1.706,   2.027e-3
1.709,   2.046e-3
1.712,   2.065e-3
1.715,   2.079e-3
1.716,   2.083e-3

File: B3_BEST_500_#1_Full-244mV.txt
Feb. 22, 2023   12:48:57
Linear Sweep Voltammetry
File: d:\current work\al_oer\electrochemical test data\batch 3\500\B3_BEST_500_#1_Full-244mV.txt
Data Source:  Experiment
Instrument Model:  CHI660E
Header:
Note:

Init E (V) = 1.099

Final E (V) = 1.525

Scan Rate (V/s) = 0.010
Sample Interval (V) = 0.001
Quiet Time (sec) = 2
Sensitivity (A/V) = 0.001
Comp R (ohm) = 5.2

Results:

Channel 1:

Potential/V, Current/A
1.099,   7.934e-5
1.101,   8.129e-5
1.103,   7.473e-5
1.105,   6.936e-5
1.107,   6.522e-5
1.109,   6.177e-5
1.111,   5.880e-5
1.113,   5.631e-5
1.115,   5.422e-5
1.117,   5.258e-5
1.119,   5.114e-5
1.121,   4.960e-5
1.123,   4.846e-5
1.125,   4.753e-5
1.127,   4.667e-5
1.129,   4.580e-5
1.131,   4.513e-5
1.133,   4.477e-5
1.135,   4.417e-5
1.137,   4.359e-5
1.139,   4.336e-5
1.141,   4.314e-5
1.143,   4.282e-5
1.145,   4.266e-5
1.147,   4.233e-5
1.149,   4.235e-5
1.151,   4.223e-5
1.153,   4.205e-5
1.155,   4.198e-5
1.157,   4.208e-5
1.159,   4.208e-5
1.161,   4.203e-5
1.163,   4.203e-5
1.165,   4.232e-5
1.167,   4.235e-5
1.169,   4.233e-5
1.171,   4.264e-5
1.173,   4.277e-5
1.175,   4.291e-5
1.177,   4.303e-5
1.179,   4.312e-5
1.181,   4.344e-5
1.183,   4.366e-5
1.185,   4.366e-5
1.187,   4.389e-5
1.189,   4.426e-5
1.191,   4.433e-5
1.193,   4.446e-5
1.195,   4.462e-5
1.197,   4.504e-5
1.199,   4.516e-5
1.201,   4.525e-5
1.203,   4.548e-5
1.205,   4.572e-5
1.207,   4.571e-5
1.209,   4.597e-5
1.211,   4.595e-5
1.213,   4.630e-5
1.215,   4.632e-5
1.217,   4.633e-5
1.219,   4.647e-5
1.221,   4.669e-5
1.223,   4.670e-5
1.225,   4.661e-5
1.227,   4.671e-5
1.229,   4.695e-5
1.231,   4.684e-5
1.233,   4.678e-5
1.235,   4.698e-5
1.237,   4.706e-5
1.239,   4.692e-5
1.241,   4.688e-5
1.243,   4.681e-5
1.245,   4.694e-5
1.247,   4.686e-5
1.249,   4.663e-5
1.251,   4.670e-5
1.253,   4.676e-5
1.255,   4.668e-5
1.257,   4.655e-5
1.259,   4.642e-5
1.261,   4.669e-5
1.263,   4.643e-5
1.265,   4.634e-5
1.267,   4.633e-5
1.269,   4.643e-5
1.271,   4.626e-5
1.273,   4.630e-5
1.275,   4.615e-5
1.277,   4.624e-5
1.279,   4.612e-5
1.281,   4.603e-5
1.283,   4.594e-5
1.285,   4.615e-5
1.287,   4.605e-5
1.289,   4.591e-5
1.291,   4.588e-5
1.293,   4.613e-5
1.295,   4.613e-5
1.297,   4.588e-5
1.299,   4.612e-5
1.301,   4.623e-5
1.303,   4.620e-5
1.305,   4.618e-5
1.307,   4.629e-5
1.309,   4.657e-5
1.311,   4.650e-5
1.313,   4.646e-5
1.315,   4.655e-5
1.317,   4.686e-5
1.319,   4.686e-5
1.321,   4.696e-5
1.323,   4.705e-5
1.325,   4.757e-5
1.327,   4.741e-5
1.329,   4.747e-5
1.331,   4.760e-5
1.333,   4.792e-5
1.335,   4.803e-5
1.337,   4.826e-5
1.339,   4.816e-5
1.341,   4.858e-5
1.343,   4.870e-5
1.345,   4.864e-5
1.347,   4.888e-5
1.349,   4.927e-5
1.351,   4.938e-5
1.353,   4.947e-5
1.355,   4.962e-5
1.357,   5.008e-5
1.359,   5.018e-5
1.361,   5.028e-5
1.363,   5.083e-5
1.365,   5.110e-5
1.367,   5.133e-5
1.369,   5.164e-5
1.371,   5.200e-5
1.373,   5.269e-5
1.375,   5.322e-5
1.377,   5.365e-5
1.379,   5.427e-5
1.381,   5.516e-5
1.383,   5.599e-5
1.385,   5.680e-5
1.387,   5.779e-5
1.389,   5.941e-5
1.391,   6.057e-5
1.393,   6.192e-5
1.395,   6.395e-5
1.397,   6.619e-5
1.399,   6.849e-5
1.401,   7.108e-5
1.403,   7.399e-5
1.405,   7.770e-5
1.407,   8.152e-5
1.409,   8.578e-5
1.411,   9.067e-5
1.413,   9.652e-5
1.415,   1.027e-4
1.417,   1.095e-4
1.419,   1.175e-4
1.421,   1.267e-4
1.423,   1.367e-4
1.425,   1.478e-4
1.427,   1.608e-4
1.429,   1.755e-4
1.431,   1.917e-4
1.433,   2.097e-4
1.435,   2.304e-4
1.437,   2.541e-4
1.439,   2.807e-4
1.441,   3.104e-4
1.443,   3.444e-4
1.445,   3.828e-4
1.447,   4.260e-4
1.449,   4.746e-4
1.451,   5.293e-4
1.453,   5.920e-4
1.455,   6.610e-4
1.457,   7.386e-4
1.459,   8.255e-4
1.461,   9.225e-4
1.463,   1.029e-3
1.465,   1.148e-3
1.467,   1.279e-3
1.469,   1.421e-3
1.471,   1.582e-3
1.473,   1.752e-3
1.475,   1.937e-3
1.477,   2.133e-3
1.479,   2.354e-3
1.481,   2.585e-3
1.483,   2.819e-3
1.485,   3.072e-3
1.487,   3.331e-3
1.489,   3.603e-3
1.491,   3.903e-3
1.493,   4.184e-3
1.495,   4.497e-3
1.497,   5.201e-3
1.499,   5.511e-3
1.501,   5.809e-3
1.503,   6.082e-3
1.505,   6.487e-3
1.507,   6.834e-3
1.509,   7.494e-3
1.511,   7.758e-3
1.513,   7.995e-3
1.515,   8.801e-3
1.517,   9.029e-3
1.519,   9.833e-3
1.521,   1.006e-2
1.523,   1.006e-2
1.525,   1.006e-2

File: B3_BEST_500_#1_High_Quality(#14)-194mV.txt
Feb. 22, 2023   14:43:49
Linear Sweep Voltammetry
File: d:\current work\al_oer\electrochemical test data\batch 3\500\B3_BEST_500_#1_High_Quality(#14)-194mV.txt
Data Source:  Experiment
Instrument Model:  CHI660E
Header:
Note:

Init E (V) = 1.098

Final E (V) = 1.456

Scan Rate (V/s) = 0.010
Sample Interval (V) = 0.001
Quiet Time (sec) = 2
Sensitivity (A/V) = 0.001
Comp R (ohm) = 5.1

Results:

Channel 1:

Potential/V, Current/A
1.098,   2.198e-4
1.100,   2.415e-4
1.102,   2.023e-4
1.104,   1.999e-4
1.106,   1.864e-4
1.108,   1.646e-4
1.110,   1.694e-4
1.112,   1.556e-4
1.114,   1.639e-4
1.116,   1.494e-4
1.118,   1.520e-4
1.120,   1.516e-4
1.122,   1.377e-4
1.124,   1.495e-4
1.126,   1.473e-4
1.128,   1.341e-4
1.130,   1.382e-4
1.132,   1.464e-4
1.134,   1.435e-4
1.136,   1.368e-4
1.138,   1.357e-4
1.140,   1.373e-4
1.142,   1.291e-4
1.144,   1.293e-4
1.146,   1.377e-4
1.148,   1.353e-4
1.150,   1.287e-4
1.152,   1.407e-4
1.154,   1.272e-4
1.156,   1.468e-4
1.158,   1.388e-4
1.160,   1.507e-4
1.162,   1.284e-4
1.164,   1.472e-4
1.166,   1.323e-4
1.168,   1.479e-4
1.170,   1.437e-4
1.172,   1.313e-4
1.174,   1.457e-4
1.176,   1.535e-4
1.178,   1.394e-4
1.180,   1.266e-4
1.182,   1.470e-4
1.184,   1.553e-4
1.186,   1.590e-4
1.188,   1.453e-4
1.190,   1.377e-4
1.192,   1.315e-4
1.194,   1.287e-4
1.196,   1.336e-4
1.198,   1.328e-4
1.200,   1.340e-4
1.202,   1.365e-4
1.204,   1.361e-4
1.206,   1.334e-4
1.208,   1.330e-4
1.210,   1.324e-4
1.212,   1.323e-4
1.214,   1.367e-4
1.216,   1.462e-4
1.218,   1.567e-4
1.220,   1.640e-4
1.222,   1.641e-4
1.224,   1.569e-4
1.226,   1.461e-4
1.228,   1.365e-4
1.230,   1.335e-4
1.232,   1.416e-4
1.234,   1.565e-4
1.236,   1.656e-4
1.238,   1.619e-4
1.240,   1.487e-4
1.242,   1.353e-4
1.244,   1.336e-4
1.246,   1.442e-4
1.248,   1.591e-4
1.250,   1.656e-4
1.252,   1.577e-4
1.254,   1.431e-4
1.256,   1.329e-4
1.258,   1.344e-4
1.260,   1.477e-4
1.262,   1.615e-4
1.264,   1.655e-4
1.266,   1.584e-4
1.268,   1.437e-4
1.270,   1.331e-4
1.272,   1.325e-4
1.274,   1.400e-4
1.276,   1.525e-4
1.278,   1.617e-4
1.280,   1.632e-4
1.282,   1.592e-4
1.284,   1.500e-4
1.286,   1.407e-4
1.288,   1.322e-4
1.290,   1.299e-4
1.292,   1.348e-4
1.294,   1.442e-4
1.296,   1.522e-4
1.298,   1.586e-4
1.300,   1.626e-4
1.302,   1.634e-4
1.304,   1.603e-4
1.306,   1.515e-4
1.308,   1.427e-4
1.310,   1.360e-4
1.312,   1.327e-4
1.314,   1.324e-4
1.316,   1.382e-4
1.318,   1.472e-4
1.320,   1.584e-4
1.322,   1.659e-4
1.324,   1.658e-4
1.326,   1.555e-4
1.328,   1.418e-4
1.330,   1.341e-4
1.332,   1.394e-4
1.334,   1.569e-4
1.336,   1.691e-4
1.338,   1.615e-4
1.340,   1.427e-4
1.342,   1.416e-4
1.344,   1.646e-4
1.346,   1.687e-4
1.348,   1.460e-4
1.350,   1.543e-4
1.352,   1.763e-4
1.354,   1.511e-4
1.356,   1.655e-4
1.358,   1.740e-4
1.360,   1.559e-4
1.362,   1.840e-4
1.364,   1.615e-4
1.366,   1.902e-4
1.368,   1.741e-4
1.370,   1.866e-4
1.372,   1.997e-4
1.374,   1.900e-4
1.376,   2.049e-4
1.378,   2.227e-4
1.380,   2.253e-4
1.382,   2.348e-4
1.384,   2.456e-4
1.386,   2.642e-4
1.388,   2.869e-4
1.390,   3.083e-4
1.392,   3.347e-4
1.394,   3.640e-4
1.396,   3.901e-4
1.398,   4.296e-4
1.400,   4.943e-4
1.402,   5.271e-4
1.404,   5.926e-4
1.406,   6.658e-4
1.408,   7.453e-4
1.410,   8.098e-4
1.412,   9.518e-4
1.414,   1.057e-3
1.416,   1.153e-3
1.418,   1.287e-3
1.420,   1.452e-3
1.422,   1.634e-3
1.424,   1.830e-3
1.426,   2.062e-3
1.428,   2.347e-3
1.430,   2.644e-3
1.432,   2.899e-3
1.434,   3.287e-3
1.436,   3.616e-3
1.438,   4.055e-3
1.440,   4.642e-3
1.442,   5.219e-3
1.444,   5.933e-3
1.446,   6.635e-3
1.448,   7.471e-3
1.450,   8.350e-3
1.452,   9.336e-3
1.454,   1.005e-2
1.456,   1.006e-2

File: B3_BEST_500_#3_Full-228mV.txt
Feb. 24, 2023   14:50:47
Linear Sweep Voltammetry
File: d:\current work\al_oer\electrochemical test data\batch 3\500\B3_BEST_500_#3_Full-228mV.txt
Data Source:  Experiment
Instrument Model:  CHI660E
Header:
Note:

Init E (V) = 1.098

Final E (V) = 1.503

Scan Rate (V/s) = 0.010
Sample Interval (V) = 0.001
Quiet Time (sec) = 2
Sensitivity (A/V) = 0.001
Comp R (ohm) = 4.7

Results:

Channel 1:

Potential/V, Current/A
1.098,   6.365e-5
1.100,   6.713e-5
1.102,   6.176e-5
1.104,   5.752e-5
1.106,   5.427e-5
1.108,   5.174e-5
1.110,   4.945e-5
1.112,   4.753e-5
1.114,   4.602e-5
1.116,   4.488e-5
1.118,   4.381e-5
1.120,   4.282e-5
1.122,   4.196e-5
1.124,   4.148e-5
1.126,   4.079e-5
1.128,   4.017e-5
1.130,   3.981e-5
1.132,   3.957e-5
1.134,   3.925e-5
1.136,   3.892e-5
1.138,   3.868e-5
1.140,   3.866e-5
1.142,   3.846e-5
1.144,   3.834e-5
1.146,   3.825e-5
1.148,   3.834e-5
1.150,   3.825e-5
1.152,   3.816e-5
1.154,   3.818e-5
1.156,   3.843e-5
1.158,   3.848e-5
1.160,   3.841e-5
1.162,   3.854e-5
1.164,   3.882e-5
1.166,   3.885e-5
1.168,   3.892e-5
1.170,   3.920e-5
1.172,   3.943e-5
1.174,   3.949e-5
1.176,   3.965e-5
1.178,   3.980e-5
1.180,   4.017e-5
1.182,   4.036e-5
1.184,   4.041e-5
1.186,   4.059e-5
1.188,   4.090e-5
1.190,   4.121e-5
1.192,   4.131e-5
1.194,   4.149e-5
1.196,   4.195e-5
1.198,   4.203e-5
1.200,   4.203e-5
1.202,   4.228e-5
1.204,   4.265e-5
1.206,   4.270e-5
1.208,   4.285e-5
1.210,   4.290e-5
1.212,   4.327e-5
1.214,   4.342e-5
1.216,   4.344e-5
1.218,   4.352e-5
1.220,   4.382e-5
1.222,   4.394e-5
1.224,   4.381e-5
1.226,   4.394e-5
1.228,   4.423e-5
1.230,   4.422e-5
1.232,   4.418e-5
1.234,   4.431e-5
1.236,   4.442e-5
1.238,   4.447e-5
1.240,   4.439e-5
1.242,   4.440e-5
1.244,   4.466e-5
1.246,   4.459e-5
1.248,   4.446e-5
1.250,   4.452e-5
1.252,   4.473e-5
1.254,   4.465e-5
1.256,   4.461e-5
1.258,   4.451e-5
1.260,   4.479e-5
1.262,   4.472e-5
1.264,   4.458e-5
1.266,   4.469e-5
1.268,   4.486e-5
1.270,   4.470e-5
1.272,   4.479e-5
1.274,   4.478e-5
1.276,   4.495e-5
1.278,   4.485e-5
1.280,   4.483e-5
1.282,   4.485e-5
1.284,   4.503e-5
1.286,   4.506e-5
1.288,   4.494e-5
1.290,   4.513e-5
1.292,   4.538e-5
1.294,   4.536e-5
1.296,   4.535e-5
1.298,   4.536e-5
1.300,   4.563e-5
1.302,   4.568e-5
1.304,   4.566e-5
1.306,   4.576e-5
1.308,   4.600e-5
1.310,   4.619e-5
1.312,   4.602e-5
1.314,   4.626e-5
1.316,   4.659e-5
1.318,   4.664e-5
1.320,   4.674e-5
1.322,   4.689e-5
1.324,   4.732e-5
1.326,   4.731e-5
1.328,   4.736e-5
1.330,   4.766e-5
1.332,   4.805e-5
1.334,   4.829e-5
1.336,   4.833e-5
1.338,   4.856e-5
1.340,   4.898e-5
1.342,   4.929e-5
1.344,   4.943e-5
1.346,   4.975e-5
1.348,   5.033e-5
1.350,   5.056e-5
1.352,   5.088e-5
1.354,   5.120e-5
1.356,   5.192e-5
1.358,   5.233e-5
1.360,   5.270e-5
1.362,   5.331e-5
1.364,   5.403e-5
1.366,   5.456e-5
1.368,   5.539e-5
1.370,   5.619e-5
1.372,   5.736e-5
1.374,   5.841e-5
1.376,   5.946e-5
1.378,   6.080e-5
1.380,   6.263e-5
1.382,   6.438e-5
1.384,   6.616e-5
1.386,   6.847e-5
1.388,   7.148e-5
1.390,   7.436e-5
1.392,   7.774e-5
1.394,   8.182e-5
1.396,   8.676e-5
1.398,   9.186e-5
1.400,   9.785e-5
1.402,   1.047e-4
1.404,   1.128e-4
1.406,   1.218e-4
1.408,   1.321e-4
1.410,   1.436e-4
1.412,   1.575e-4
1.414,   1.727e-4
1.416,   1.899e-4
1.418,   2.094e-4
1.420,   2.321e-4
1.422,   2.570e-4
1.424,   2.854e-4
1.426,   3.183e-4
1.428,   3.545e-4
1.430,   3.955e-4
1.432,   4.415e-4
1.434,   4.933e-4
1.436,   5.519e-4
1.438,   6.173e-4
1.440,   6.903e-4
1.442,   7.719e-4
1.444,   8.631e-4
1.446,   9.647e-4
1.448,   1.077e-3
1.450,   1.201e-3
1.452,   1.341e-3
1.454,   1.493e-3
1.456,   1.661e-3
1.458,   1.845e-3
1.460,   2.048e-3
1.462,   2.270e-3
1.464,   2.515e-3
1.466,   2.779e-3
1.468,   3.068e-3
1.470,   3.378e-3
1.472,   3.717e-3
1.474,   4.087e-3
1.476,   4.477e-3
1.478,   4.906e-3
1.480,   5.368e-3
1.482,   5.843e-3
1.484,   6.337e-3
1.486,   6.887e-3
1.488,   7.450e-3
1.490,   8.030e-3
1.492,   8.655e-3
1.494,   9.255e-3
1.496,   9.985e-3
1.498,   1.007e-2
1.500,   1.007e-2
1.502,   1.007e-2
1.503,   1.007e-2

File: B3_BEST_500_#3_High_Quality(#16)-238mV.txt
Feb. 24, 2023   13:19:43
Linear Sweep Voltammetry
File: d:\current work\al_oer\electrochemical test data\batch 3\500\B3_BEST_500_#3_High_Quality(#16)-238mV.txt
Data Source:  Experiment
Instrument Model:  CHI660E
Header:
Note:

Init E (V) = 1.099

Final E (V) = 1.541

Scan Rate (V/s) = 0.010
Sample Interval (V) = 0.001
Quiet Time (sec) = 2
Sensitivity (A/V) = 0.001
Comp R (ohm) = 4.6

Results:

Channel 1:

Potential/V, Current/A
1.099,   1.223e-4
1.101,   1.244e-4
1.103,   1.128e-4
1.105,   1.037e-4
1.107,   9.667e-5
1.109,   9.115e-5
1.111,   8.655e-5
1.113,   8.263e-5
1.115,   7.939e-5
1.117,   7.685e-5
1.119,   7.460e-5
1.121,   7.248e-5
1.123,   7.067e-5
1.125,   6.946e-5
1.127,   6.817e-5
1.129,   6.688e-5
1.131,   6.591e-5
1.133,   6.527e-5
1.135,   6.443e-5
1.137,   6.382e-5
1.139,   6.315e-5
1.141,   6.279e-5
1.143,   6.241e-5
1.145,   6.204e-5
1.147,   6.163e-5
1.149,   6.148e-5
1.151,   6.133e-5
1.153,   6.100e-5
1.155,   6.081e-5
1.157,   6.093e-5
1.159,   6.086e-5
1.161,   6.060e-5
1.163,   6.055e-5
1.165,   6.074e-5
1.167,   6.076e-5
1.169,   6.066e-5
1.171,   6.083e-5
1.173,   6.100e-5
1.175,   6.094e-5
1.177,   6.101e-5
1.179,   6.103e-5
1.181,   6.120e-5
1.183,   6.144e-5
1.185,   6.125e-5
1.187,   6.138e-5
1.189,   6.166e-5
1.191,   6.183e-5
1.193,   6.177e-5
1.195,   6.183e-5
1.197,   6.215e-5
1.199,   6.216e-5
1.201,   6.212e-5
1.203,   6.216e-5
1.205,   6.241e-5
1.207,   6.246e-5
1.209,   6.247e-5
1.211,   6.235e-5
1.213,   6.260e-5
1.215,   6.271e-5
1.217,   6.257e-5
1.219,   6.237e-5
1.221,   6.266e-5
1.223,   6.271e-5
1.225,   6.243e-5
1.227,   6.233e-5
1.229,   6.248e-5
1.231,   6.251e-5
1.233,   6.236e-5
1.235,   6.221e-5
1.237,   6.242e-5
1.239,   6.229e-5
1.241,   6.201e-5
1.243,   6.178e-5
1.245,   6.201e-5
1.247,   6.195e-5
1.249,   6.163e-5
1.251,   6.153e-5
1.253,   6.163e-5
1.255,   6.150e-5
1.257,   6.122e-5
1.259,   6.110e-5
1.261,   6.121e-5
1.263,   6.116e-5
1.265,   6.089e-5
1.267,   6.084e-5
1.269,   6.085e-5
1.271,   6.070e-5
1.273,   6.055e-5
1.275,   6.038e-5
1.277,   6.046e-5
1.279,   6.044e-5
1.281,   6.026e-5
1.283,   6.007e-5
1.285,   6.030e-5
1.287,   6.027e-5
1.289,   5.987e-5
1.291,   5.994e-5
1.293,   6.026e-5
1.295,   6.009e-5
1.297,   5.989e-5
1.299,   6.003e-5
1.301,   6.007e-5
1.303,   6.019e-5
1.305,   6.007e-5
1.307,   5.989e-5
1.309,   6.026e-5
1.311,   6.025e-5
1.313,   6.016e-5
1.315,   6.017e-5
1.317,   6.045e-5
1.319,   6.057e-5
1.321,   6.051e-5
1.323,   6.058e-5
1.325,   6.099e-5
1.327,   6.110e-5
1.329,   6.099e-5
1.331,   6.121e-5
1.333,   6.149e-5
1.335,   6.180e-5
1.337,   6.193e-5
1.339,   6.197e-5
1.341,   6.239e-5
1.343,   6.257e-5
1.345,   6.276e-5
1.347,   6.303e-5
1.349,   6.351e-5
1.351,   6.392e-5
1.353,   6.405e-5
1.355,   6.453e-5
1.357,   6.516e-5
1.359,   6.565e-5
1.361,   6.605e-5
1.363,   6.661e-5
1.365,   6.741e-5
1.367,   6.813e-5
1.369,   6.886e-5
1.371,   6.955e-5
1.373,   7.076e-5
1.375,   7.192e-5
1.377,   7.290e-5
1.379,   7.428e-5
1.381,   7.618e-5
1.383,   7.782e-5
1.385,   7.958e-5
1.387,   8.184e-5
1.389,   8.460e-5
1.391,   8.744e-5
1.393,   9.043e-5
1.395,   9.412e-5
1.397,   9.836e-5
1.399,   1.031e-4
1.401,   1.083e-4
1.403,   1.140e-4
1.405,   1.211e-4
1.407,   1.288e-4
1.409,   1.372e-4
1.411,   1.470e-4
1.413,   1.583e-4
1.415,   1.710e-4
1.417,   1.846e-4
1.419,   2.002e-4
1.421,   2.186e-4
1.423,   2.385e-4
1.425,   2.604e-4
1.427,   2.862e-4
1.429,   3.137e-4
1.431,   3.445e-4
1.433,   3.787e-4
1.435,   4.166e-4
1.437,   4.587e-4
1.439,   5.046e-4
1.441,   5.553e-4
1.443,   6.134e-4
1.445,   6.748e-4
1.447,   7.424e-4
1.449,   8.135e-4
1.451,   8.956e-4
1.453,   9.802e-4
1.455,   1.076e-3
1.457,   1.181e-3
1.459,   1.290e-3
1.461,   1.408e-3
1.463,   1.534e-3
1.465,   1.669e-3
1.467,   1.812e-3
1.469,   1.960e-3
1.471,   2.115e-3
1.473,   2.288e-3
1.475,   2.461e-3
1.477,   2.639e-3
1.479,   2.817e-3
1.481,   3.012e-3
1.483,   3.248e-3
1.485,   3.498e-3
1.487,   3.697e-3
1.489,   3.890e-3
1.491,   4.113e-3
1.493,   4.313e-3
1.495,   4.555e-3
1.497,   4.748e-3
1.499,   5.024e-3
1.501,   5.579e-3
1.503,   5.724e-3
1.505,   5.961e-3
1.507,   6.116e-3
1.509,   6.289e-3
1.511,   6.494e-3
1.513,   6.821e-3
1.515,   7.044e-3
1.517,   7.352e-3
1.519,   7.814e-3
1.521,   8.078e-3
1.523,   8.388e-3
1.525,   8.720e-3
1.527,   9.179e-3
1.529,   9.426e-3
1.531,   9.605e-3
1.533,   9.982e-3
1.535,   1.007e-2
1.537,   1.007e-2
1.539,   1.007e-2
1.541,   1.007e-2