Folder: DASH/Experimental Records, Raw Data, and Supplementary Notes and Figures/batch3/final400 (part 3)

File: B3_VARIANCE_400_#1_High_Quality(#22)-193mV.txt
Feb. 20, 2023   16:44:06
Linear Sweep Voltammetry
File: d:\current work\al_oer\electrochemical test data\batch 3\400\B3_VARIANCE_400_#1_High_Quality(#22)-193mV.txt
Data Source:  Experiment
Instrument Model:  CHI660E
Header:
Note:

Init E (V) = 1.100

Final E (V) = 1.489

Scan Rate (V/s) = 0.010
Sample Interval (V) = 0.001
Quiet Time (sec) = 2
Sensitivity (A/V) = 0.001
Comp R (ohm) = 4.9

Results:

Channel 1:

Potential/V, Current/A
1.100,   3.428e-4
1.102,   3.008e-4
1.104,   2.660e-4
1.106,   2.381e-4
1.108,   2.156e-4
1.110,   1.972e-4
1.112,   1.824e-4
1.114,   1.695e-4
1.116,   1.586e-4
1.118,   1.492e-4
1.120,   1.411e-4
1.122,   1.342e-4
1.124,   1.280e-4
1.126,   1.226e-4
1.128,   1.180e-4
1.130,   1.137e-4
1.132,   1.099e-4
1.134,   1.067e-4
1.136,   1.037e-4
1.138,   1.011e-4
1.140,   9.869e-5
1.142,   9.659e-5
1.144,   9.471e-5
1.146,   9.287e-5
1.148,   9.132e-5
1.150,   9.006e-5
1.152,   8.871e-5
1.154,   8.747e-5
1.156,   8.647e-5
1.158,   8.555e-5
1.160,   8.480e-5
1.162,   8.381e-5
1.164,   8.304e-5
1.166,   8.247e-5
1.168,   8.203e-5
1.170,   8.223e-5
1.172,   8.200e-5
1.174,   8.116e-5
1.176,   8.099e-5
1.178,   8.059e-5
1.180,   8.064e-5
1.182,   8.036e-5
1.184,   8.014e-5
1.186,   8.013e-5
1.188,   7.979e-5
1.190,   8.008e-5
1.192,   7.927e-5
1.194,   7.900e-5
1.196,   7.890e-5
1.198,   7.960e-5
1.200,   7.932e-5
1.202,   7.938e-5
1.204,   7.874e-5
1.206,   7.883e-5
1.208,   7.879e-5
1.210,   7.877e-5
1.212,   7.870e-5
1.214,   7.899e-5
1.216,   7.916e-5
1.218,   7.913e-5
1.220,   7.944e-5
1.222,   7.922e-5
1.224,   7.965e-5
1.226,   7.993e-5
1.228,   7.966e-5
1.230,   7.999e-5
1.232,   8.015e-5
1.234,   8.034e-5
1.236,   8.053e-5
1.238,   8.078e-5
1.240,   8.105e-5
1.242,   8.117e-5
1.244,   8.145e-5
1.246,   8.166e-5
1.248,   8.192e-5
1.250,   8.215e-5
1.252,   8.242e-5
1.254,   8.274e-5
1.256,   8.303e-5
1.258,   8.322e-5
1.260,   8.360e-5
1.262,   8.401e-5
1.264,   8.429e-5
1.266,   8.462e-5
1.268,   8.501e-5
1.270,   8.540e-5
1.272,   8.589e-5
1.274,   8.637e-5
1.276,   8.669e-5
1.278,   8.693e-5
1.280,   8.745e-5
1.282,   8.784e-5
1.284,   8.834e-5
1.286,   8.890e-5
1.288,   8.949e-5
1.290,   8.988e-5
1.292,   9.041e-5
1.294,   9.106e-5
1.296,   9.165e-5
1.298,   9.234e-5
1.300,   9.306e-5
1.302,   9.381e-5
1.304,   9.458e-5
1.306,   9.533e-5
1.308,   9.622e-5
1.310,   9.705e-5
1.312,   9.798e-5
1.314,   9.884e-5
1.316,   9.978e-5
1.318,   1.008e-4
1.320,   1.019e-4
1.322,   1.032e-4
1.324,   1.042e-4
1.326,   1.058e-4
1.328,   1.070e-4
1.330,   1.083e-4
1.332,   1.098e-4
1.334,   1.115e-4
1.336,   1.132e-4
1.338,   1.151e-4
1.340,   1.170e-4
1.342,   1.192e-4
1.344,   1.215e-4
1.346,   1.238e-4
1.348,   1.266e-4
1.350,   1.297e-4
1.352,   1.330e-4
1.354,   1.366e-4
1.356,   1.406e-4
1.358,   1.452e-4
1.360,   1.500e-4
1.362,   1.554e-4
1.364,   1.616e-4
1.366,   1.684e-4
1.368,   1.762e-4
1.370,   1.849e-4
1.372,   1.944e-4
1.374,   2.056e-4
1.376,   2.179e-4
1.378,   2.321e-4
1.380,   2.481e-4
1.382,   2.663e-4
1.384,   2.869e-4
1.386,   3.100e-4
1.388,   3.364e-4
1.390,   3.664e-4
1.392,   4.004e-4
1.394,   4.383e-4
1.396,   4.811e-4
1.398,   5.293e-4
1.400,   5.836e-4
1.402,   6.441e-4
1.404,   7.114e-4
1.406,   7.868e-4
1.408,   8.702e-4
1.410,   9.629e-4
1.412,   1.065e-3
1.414,   1.177e-3
1.416,   1.301e-3
1.418,   1.436e-3
1.420,   1.583e-3
1.422,   1.744e-3
1.424,   1.916e-3
1.426,   2.104e-3
1.428,   2.304e-3
1.430,   2.519e-3
1.432,   2.747e-3
1.434,   2.989e-3
1.436,   3.246e-3
1.438,   3.515e-3
1.440,   3.794e-3
1.442,   4.085e-3
1.444,   4.387e-3
1.446,   4.699e-3
1.448,   5.018e-3
1.450,   5.337e-3
1.452,   5.661e-3
1.454,   5.983e-3
1.456,   6.300e-3
1.458,   6.612e-3
1.460,   6.910e-3
1.462,   7.197e-3
1.464,   7.463e-3
1.466,   7.711e-3
1.468,   7.936e-3
1.470,   8.136e-3
1.472,   8.307e-3
1.474,   8.455e-3
1.476,   8.571e-3
1.478,   8.662e-3
1.480,   8.725e-3
1.482,   8.762e-3
1.484,   8.773e-3
1.486,   8.769e-3
1.488,   8.739e-3
1.489,   8.718e-3

File: B3_VARIANCE_400_#2_High_Quality(#23)-188mV.txt
Feb. 21, 2023   15:16:10
Linear Sweep Voltammetry
File: d:\current work\al_oer\electrochemical test data\batch 3\400\B3_VARIANCE_400_#2_High_Quality(#23)-188mV.txt
Data Source:  Experiment
Instrument Model:  CHI660E
Header:
Note:

Init E (V) = 1.101

Final E (V) = 1.583

Scan Rate (V/s) = 0.010
Sample Interval (V) = 0.001
Quiet Time (sec) = 2
Sensitivity (A/V) = 0.001
Comp R (ohm) = 5.8

Results:

Channel 1:
Ep = 1.259V
ip = 9.807e-3A
Ah = 4.620e-2C

Potential/V, Current/A
1.101,   2.499e-3
1.103,   1.873e-3
1.105,   1.479e-3
1.107,   1.217e-3
1.109,   1.034e-3
1.111,   8.979e-4
1.113,   7.952e-4
1.115,   7.165e-4
1.117,   6.531e-4
1.119,   6.012e-4
1.121,   5.588e-4
1.123,   5.223e-4
1.125,   4.922e-4
1.127,   4.656e-4
1.129,   4.424e-4
1.131,   4.224e-4
1.133,   4.057e-4
1.135,   3.909e-4
1.137,   3.777e-4
1.139,   3.652e-4
1.141,   3.547e-4
1.143,   3.458e-4
1.145,   3.371e-4
1.147,   3.294e-4
1.149,   3.227e-4
1.151,   3.165e-4
1.153,   3.104e-4
1.155,   3.048e-4
1.157,   2.999e-4
1.159,   2.957e-4
1.161,   2.915e-4
1.163,   2.880e-4
1.165,   2.845e-4
1.167,   2.816e-4
1.169,   2.786e-4
1.171,   2.757e-4
1.173,   2.737e-4
1.175,   2.718e-4
1.177,   2.700e-4
1.179,   2.679e-4
1.181,   2.662e-4
1.183,   2.650e-4
1.185,   2.638e-4
1.187,   2.626e-4
1.189,   2.611e-4
1.191,   2.603e-4
1.193,   2.595e-4
1.195,   2.583e-4
1.197,   2.574e-4
1.199,   2.570e-4
1.201,   2.562e-4
1.203,   2.557e-4
1.205,   2.552e-4
1.207,   2.546e-4
1.209,   2.542e-4
1.211,   2.539e-4
1.213,   2.534e-4
1.215,   2.538e-4
1.217,   2.537e-4
1.219,   2.532e-4
1.221,   2.527e-4
1.223,   2.529e-4
1.225,   2.528e-4
1.227,   2.524e-4
1.229,   2.523e-4
1.231,   2.529e-4
1.233,   2.529e-4
1.235,   2.525e-4
1.237,   2.530e-4
1.239,   2.529e-4
1.241,   2.532e-4
1.243,   2.529e-4
1.245,   2.530e-4
1.247,   2.536e-4
1.249,   2.535e-4
1.251,   2.534e-4
1.253,   2.536e-4
1.255,   2.541e-4
1.257,   2.543e-4
1.259,   2.541e-4
1.261,   2.544e-4
1.263,   2.552e-4
1.265,   2.548e-4
1.267,   2.546e-4
1.269,   2.547e-4
1.271,   2.551e-4
1.273,   2.554e-4
1.275,   2.559e-4
1.277,   2.560e-4
1.279,   2.567e-4
1.281,   2.569e-4
1.283,   2.573e-4
1.285,   2.572e-4
1.287,   2.580e-4
1.289,   2.588e-4
1.291,   2.594e-4
1.293,   2.596e-4
1.295,   2.608e-4
1.297,   2.610e-4
1.299,   2.612e-4
1.301,   2.619e-4
1.303,   2.630e-4
1.305,   2.636e-4
1.307,   2.642e-4
1.309,   2.651e-4
1.311,   2.660e-4
1.313,   2.669e-4
1.315,   2.679e-4
1.317,   2.686e-4
1.319,   2.701e-4
1.321,   2.715e-4
1.323,   2.726e-4
1.325,   2.740e-4
1.327,   2.765e-4
1.329,   2.773e-4
1.331,   2.790e-4
1.333,   2.807e-4
1.335,   2.830e-4
1.337,   2.848e-4
1.339,   2.871e-4
1.341,   2.891e-4
1.343,   2.917e-4
1.345,   2.941e-4
1.347,   2.969e-4
1.349,   2.999e-4
1.351,   3.037e-4
1.353,   3.077e-4
1.355,   3.117e-4
1.357,   3.164e-4
1.359,   3.221e-4
1.361,   3.270e-4
1.363,   3.329e-4
1.365,   3.400e-4
1.367,   3.480e-4
1.369,   3.566e-4
1.371,   3.666e-4
1.373,   3.766e-4
1.375,   3.903e-4
1.377,   4.043e-4
1.379,   4.197e-4
1.381,   4.384e-4
1.383,   4.596e-4
1.385,   4.834e-4
1.387,   5.109e-4
1.389,   5.425e-4
1.391,   5.790e-4
1.393,   6.189e-4
1.395,   6.650e-4
1.397,   7.175e-4
1.399,   7.771e-4
1.401,   8.446e-4
1.403,   9.215e-4
1.405,   1.006e-3
1.407,   1.103e-3
1.409,   1.209e-3
1.411,   1.326e-3
1.413,   1.455e-3
1.415,   1.599e-3
1.417,   1.759e-3
1.419,   1.932e-3
1.421,   2.125e-3
1.423,   2.332e-3
1.425,   2.558e-3
1.427,   2.803e-3
1.429,   3.068e-3
1.431,   3.357e-3
1.433,   3.665e-3
1.435,   3.995e-3
1.437,   4.354e-3
1.439,   4.729e-3
1.441,   5.121e-3
1.443,   5.548e-3
1.445,   6.004e-3
1.447,   6.524e-3
1.449,   7.005e-3
1.451,   7.528e-3
1.453,   8.070e-3
1.455,   8.582e-3
1.457,   9.559e-3
1.459,   1.006e-2
1.461,   1.006e-2
1.463,   1.006e-2
1.465,   1.006e-2
1.467,   1.006e-2
1.469,   1.006e-2
1.471,   1.006e-2
1.473,   1.006e-2
1.475,   1.006e-2
1.477,   1.006e-2
1.479,   1.006e-2
1.481,   1.006e-2
1.483,   1.006e-2
1.485,   1.006e-2
1.487,   1.006e-2
1.489,   1.006e-2
1.491,   1.006e-2
1.493,   1.006e-2
1.495,   1.006e-2
1.497,   1.006e-2
1.499,   1.006e-2
1.501,   1.006e-2
1.503,   1.006e-2
1.505,   1.006e-2
1.507,   1.006e-2
1.509,   1.006e-2
1.511,   1.006e-2
1.513,   1.006e-2
1.515,   1.006e-2
1.517,   1.006e-2
1.519,   1.006e-2
1.521,   1.006e-2
1.523,   1.006e-2
1.525,   1.006e-2
1.527,   1.006e-2
1.529,   1.006e-2
1.531,   1.006e-2
1.533,   1.006e-2
1.535,   1.006e-2
1.537,   1.006e-2
1.539,   1.006e-2
1.541,   1.006e-2
1.543,   1.006e-2
1.545,   1.006e-2
1.547,   1.006e-2
1.549,   1.006e-2
1.551,   1.006e-2
1.553,   1.006e-2
1.555,   1.006e-2
1.557,   1.006e-2
1.559,   1.006e-2
1.561,   1.006e-2
1.563,   1.006e-2
1.565,   1.006e-2
1.567,   1.006e-2
1.569,   1.006e-2
1.571,   1.006e-2
1.573,   1.006e-2
1.575,   1.006e-2
1.577,   1.006e-2
1.579,   1.006e-2
1.581,   1.006e-2
1.583,   1.006e-2

File: B3_VARIANCE_400_#3_Full(#11)-263mV.txt
Feb. 20, 2023   15:45:04
Linear Sweep Voltammetry
File: d:\current work\al_oer\electrochemical test data\batch 3\400\B3_VARIANCE_400_#3_Full(#11)-263mV.txt
Data Source:  Experiment
Instrument Model:  CHI660E
Header:
Note:

Init E (V) = 1.089

Final E (V) = 1.658

Scan Rate (V/s) = 0.010
Sample Interval (V) = 0.001
Quiet Time (sec) = 2
Sensitivity (A/V) = 0.001
Comp R (ohm) = 5.3

Results:

Channel 1:
Ep = 1.436V
ip = 5.679e-3A
Ah = 1.208e-1C

Potential/V, Current/A
1.089,   9.252e-5
1.091,   8.172e-5
1.093,   7.194e-5
1.095,   6.425e-5
1.097,   5.818e-5
1.099,   5.325e-5
1.101,   4.921e-5
1.103,   4.583e-5
1.105,   4.302e-5
1.107,   4.057e-5
1.109,   3.849e-5
1.111,   3.684e-5
1.113,   3.525e-5
1.115,   3.386e-5
1.117,   3.267e-5
1.119,   3.162e-5
1.121,   3.060e-5
1.123,   2.980e-5
1.125,   2.905e-5
1.127,   2.831e-5
1.129,   2.770e-5
1.131,   2.722e-5
1.133,   2.673e-5
1.135,   2.631e-5
1.137,   2.586e-5
1.139,   2.553e-5
1.141,   2.519e-5
1.143,   2.486e-5
1.145,   2.460e-5
1.147,   2.441e-5
1.149,   2.419e-5
1.151,   2.399e-5
1.153,   2.383e-5
1.155,   2.368e-5
1.157,   2.351e-5
1.159,   2.367e-5
1.161,   2.320e-5
1.163,   2.321e-5
1.165,   2.312e-5
1.167,   2.305e-5
1.169,   2.296e-5
1.171,   2.291e-5
1.173,   2.288e-5
1.175,   2.283e-5
1.177,   2.283e-5
1.179,   2.277e-5
1.181,   2.277e-5
1.183,   2.274e-5
1.185,   2.271e-5
1.187,   2.275e-5
1.189,   2.274e-5
1.191,   2.271e-5
1.193,   2.276e-5
1.195,   2.279e-5
1.197,   2.280e-5
1.199,   2.277e-5
1.201,   2.276e-5
1.203,   2.282e-5
1.205,   2.282e-5
1.207,   2.288e-5
1.209,   2.286e-5
1.211,   2.291e-5
1.213,   2.292e-5
1.215,   2.296e-5
1.217,   2.299e-5
1.219,   2.302e-5
1.221,   2.306e-5
1.223,   2.307e-5
1.225,   2.313e-5
1.227,   2.318e-5
1.229,   2.323e-5
1.231,   2.323e-5
1.233,   2.324e-5
1.235,   2.327e-5
1.237,   2.338e-5
1.239,   2.339e-5
1.241,   2.340e-5
1.243,   2.348e-5
1.245,   2.349e-5
1.247,   2.353e-5
1.249,   2.361e-5
1.251,   2.369e-5
1.253,   2.370e-5
1.255,   2.372e-5
1.257,   2.378e-5
1.259,   2.385e-5
1.261,   2.391e-5
1.263,   2.395e-5
1.265,   2.404e-5
1.267,   2.411e-5
1.269,   2.413e-5
1.271,   2.420e-5
1.273,   2.424e-5
1.275,   2.432e-5
1.277,   2.438e-5
1.279,   2.447e-5
1.281,   2.451e-5
1.283,   2.464e-5
1.285,   2.465e-5
1.287,   2.471e-5
1.289,   2.486e-5
1.291,   2.494e-5
1.293,   2.503e-5
1.295,   2.510e-5
1.297,   2.519e-5
1.299,   2.531e-5
1.301,   2.539e-5
1.303,   2.549e-5
1.305,   2.558e-5
1.307,   2.572e-5
1.309,   2.587e-5
1.311,   2.601e-5
1.313,   2.603e-5
1.315,   2.629e-5
1.317,   2.639e-5
1.319,   2.655e-5
1.321,   2.666e-5
1.323,   2.684e-5
1.325,   2.697e-5
1.327,   2.717e-5
1.329,   2.732e-5
1.331,   2.752e-5
1.333,   2.772e-5
1.335,   2.791e-5
1.337,   2.814e-5
1.339,   2.840e-5
1.341,   2.869e-5
1.343,   2.891e-5
1.345,   2.920e-5
1.347,   2.956e-5
1.349,   2.992e-5
1.351,   3.020e-5
1.353,   3.069e-5
1.355,   3.111e-5
1.357,   3.162e-5
1.359,   3.218e-5
1.361,   3.273e-5
1.363,   3.345e-5
1.365,   3.415e-5
1.367,   3.505e-5
1.369,   3.596e-5
1.371,   3.699e-5
1.373,   3.802e-5
1.375,   3.927e-5
1.377,   4.076e-5
1.379,   4.243e-5
1.381,   4.429e-5
1.383,   4.637e-5
1.385,   4.873e-5
1.387,   5.149e-5
1.389,   5.441e-5
1.391,   5.771e-5
1.393,   6.145e-5
1.395,   6.560e-5
1.397,   7.025e-5
1.399,   7.542e-5
1.401,   8.118e-5
1.403,   8.745e-5
1.405,   9.437e-5
1.407,   1.019e-4
1.409,   1.102e-4
1.411,   1.193e-4
1.413,   1.293e-4
1.415,   1.400e-4
1.417,   1.518e-4
1.419,   1.647e-4
1.421,   1.785e-4
1.423,   1.934e-4
1.425,   2.095e-4
1.427,   2.269e-4
1.429,   2.459e-4
1.431,   2.661e-4
1.433,   2.878e-4
1.435,   3.123e-4
1.437,   3.380e-4
1.439,   3.650e-4
1.441,   3.921e-4
1.443,   4.217e-4
1.445,   4.557e-4
1.447,   4.937e-4
1.449,   5.248e-4
1.451,   5.648e-4
1.453,   6.050e-4
1.455,   6.460e-4
1.457,   6.994e-4
1.459,   7.478e-4
1.461,   7.964e-4
1.463,   8.485e-4
1.465,   9.056e-4
1.467,   9.585e-4
1.469,   1.016e-3
1.471,   1.075e-3
1.473,   1.136e-3
1.475,   1.202e-3
1.477,   1.270e-3
1.479,   1.339e-3
1.481,   1.409e-3
1.483,   1.484e-3
1.485,   1.566e-3
1.487,   1.642e-3
1.489,   1.721e-3
1.491,   1.804e-3
1.493,   1.887e-3
1.495,   2.011e-3
1.497,   2.082e-3
1.499,   2.161e-3
1.501,   2.237e-3
1.503,   2.313e-3
1.505,   2.395e-3
1.507,   2.480e-3
1.509,   2.566e-3
1.511,   2.651e-3
1.513,   2.739e-3
1.515,   2.827e-3
1.517,   2.916e-3
1.519,   3.006e-3
1.521,   3.095e-3
1.523,   3.184e-3
1.525,   3.275e-3
1.527,   3.362e-3
1.529,   3.449e-3
1.531,   3.534e-3
1.533,   3.623e-3
1.535,   3.708e-3
1.537,   3.793e-3
1.539,   3.878e-3
1.541,   3.962e-3
1.543,   4.045e-3
1.545,   4.126e-3
1.547,   4.207e-3
1.549,   4.289e-3
1.551,   4.367e-3
1.553,   4.444e-3
1.555,   4.520e-3
1.557,   4.594e-3
1.559,   4.668e-3
1.561,   4.739e-3
1.563,   4.811e-3
1.565,   4.882e-3
1.567,   4.948e-3
1.569,   5.011e-3
1.571,   5.075e-3
1.573,   5.138e-3
1.575,   5.196e-3
1.577,   5.254e-3
1.579,   5.307e-3
1.581,   5.358e-3
1.583,   5.409e-3
1.585,   5.462e-3
1.587,   5.511e-3
1.589,   5.553e-3
1.591,   5.597e-3
1.593,   5.636e-3
1.595,   5.671e-3
1.597,   5.705e-3
1.599,   5.740e-3
1.601,   5.767e-3
1.603,   5.795e-3
1.605,   5.817e-3
1.607,   5.839e-3
1.609,   5.861e-3
1.611,   5.879e-3
1.613,   5.892e-3
1.615,   5.904e-3
1.617,   5.917e-3
1.619,   5.923e-3
1.621,   5.928e-3
1.623,   5.934e-3
1.625,   5.937e-3
1.627,   5.934e-3
1.629,   5.932e-3
1.631,   5.928e-3
1.633,   5.922e-3
1.635,   5.918e-3
1.637,   5.909e-3
1.639,   5.897e-3
1.641,   5.892e-3
1.643,   5.877e-3
1.645,   5.861e-3
1.647,   5.842e-3
1.649,   5.823e-3
1.651,   5.802e-3
1.653,   5.782e-3
1.655,   5.759e-3
1.657,   5.737e-3
1.658,   5.725e-3

File: B3_VARIANCE_400_#3_High_Quality(#24)-234mV.txt
Feb. 20, 2023   15:03:51
Linear Sweep Voltammetry
File: d:\current work\al_oer\electrochemical test data\batch 3\400\B3_VARIANCE_400_#3_High_Quality(#24)-234mV.txt
Data Source:  Experiment
Instrument Model:  CHI660E
Header:
Note:

Init E (V) = 1.099

Final E (V) = 1.512

Scan Rate (V/s) = 0.010
Sample Interval (V) = 0.001
Quiet Time (sec) = 2
Sensitivity (A/V) = 0.001
Comp R (ohm) = 7.2

Results:

Channel 1:

Potential/V, Current/A
1.099,   1.364e-4
1.101,   1.340e-4
1.103,   1.189e-4
1.105,   1.072e-4
1.107,   9.835e-5
1.109,   9.139e-5
1.111,   8.598e-5
1.113,   8.147e-5
1.115,   7.774e-5
1.117,   7.484e-5
1.119,   7.235e-5
1.121,   7.015e-5
1.123,   6.819e-5
1.125,   6.679e-5
1.127,   6.541e-5
1.129,   6.419e-5
1.131,   6.303e-5
1.133,   6.241e-5
1.135,   6.158e-5
1.137,   6.081e-5
1.139,   6.015e-5
1.141,   5.969e-5
1.143,   5.916e-5
1.145,   5.873e-5
1.147,   5.825e-5
1.149,   5.808e-5
1.151,   5.772e-5
1.153,   5.735e-5
1.155,   5.707e-5
1.157,   5.697e-5
1.159,   5.676e-5
1.161,   5.653e-5
1.163,   5.623e-5
1.165,   5.642e-5
1.167,   5.622e-5
1.169,   5.591e-5
1.171,   5.600e-5
1.173,   5.599e-5
1.175,   5.586e-5
1.177,   5.572e-5
1.179,   5.560e-5
1.181,   5.571e-5
1.183,   5.576e-5
1.185,   5.563e-5
1.187,   5.550e-5
1.189,   5.567e-5
1.191,   5.563e-5
1.193,   5.547e-5
1.195,   5.552e-5
1.197,   5.569e-5
1.199,   5.564e-5
1.201,   5.553e-5
1.203,   5.569e-5
1.205,   5.576e-5
1.207,   5.577e-5
1.209,   5.586e-5
1.211,   5.565e-5
1.213,   5.602e-5
1.215,   5.598e-5
1.217,   5.591e-5
1.219,   5.599e-5
1.221,   5.616e-5
1.223,   5.618e-5
1.225,   5.617e-5
1.227,   5.621e-5
1.229,   5.645e-5
1.231,   5.644e-5
1.233,   5.635e-5
1.235,   5.661e-5
1.237,   5.663e-5
1.239,   5.681e-5
1.241,   5.675e-5
1.243,   5.669e-5
1.245,   5.700e-5
1.247,   5.716e-5
1.249,   5.703e-5
1.251,   5.722e-5
1.253,   5.736e-5
1.255,   5.743e-5
1.257,   5.749e-5
1.259,   5.748e-5
1.261,   5.783e-5
1.263,   5.789e-5
1.265,   5.777e-5
1.267,   5.796e-5
1.269,   5.815e-5
1.271,   5.823e-5
1.273,   5.839e-5
1.275,   5.826e-5
1.277,   5.865e-5
1.279,   5.873e-5
1.281,   5.867e-5
1.283,   5.871e-5
1.285,   5.902e-5
1.287,   5.922e-5
1.289,   5.919e-5
1.291,   5.924e-5
1.293,   5.967e-5
1.295,   5.972e-5
1.297,   5.964e-5
1.299,   6.000e-5
1.301,   6.010e-5
1.303,   6.030e-5
1.305,   6.043e-5
1.307,   6.046e-5
1.309,   6.082e-5
1.311,   6.109e-5
1.313,   6.103e-5
1.315,   6.125e-5
1.317,   6.160e-5
1.319,   6.182e-5
1.321,   6.191e-5
1.323,   6.205e-5
1.325,   6.272e-5
1.327,   6.273e-5
1.329,   6.282e-5
1.331,   6.318e-5
1.333,   6.355e-5
1.335,   6.381e-5
1.337,   6.424e-5
1.339,   6.435e-5
1.341,   6.489e-5
1.343,   6.524e-5
1.345,   6.551e-5
1.347,   6.601e-5
1.349,   6.657e-5
1.351,   6.710e-5
1.353,   6.744e-5
1.355,   6.796e-5
1.357,   6.880e-5
1.359,   6.939e-5
1.361,   7.000e-5
1.363,   7.099e-5
1.365,   7.191e-5
1.367,   7.269e-5
1.369,   7.382e-5
1.371,   7.470e-5
1.373,   7.637e-5
1.375,   7.779e-5
1.377,   7.924e-5
1.379,   8.098e-5
1.381,   8.319e-5
1.383,   8.534e-5
1.385,   8.776e-5
1.387,   9.057e-5
1.389,   9.403e-5
1.391,   9.757e-5
1.393,   1.015e-4
1.395,   1.063e-4
1.397,   1.115e-4
1.399,   1.175e-4
1.401,   1.243e-4
1.403,   1.317e-4
1.405,   1.404e-4
1.407,   1.501e-4
1.409,   1.609e-4
1.411,   1.732e-4
1.413,   1.871e-4
1.415,   2.024e-4
1.417,   2.196e-4
1.419,   2.389e-4
1.421,   2.610e-4
1.423,   2.849e-4
1.425,   3.118e-4
1.427,   3.419e-4
1.429,   3.750e-4
1.431,   4.118e-4
1.433,   4.525e-4
1.435,   4.974e-4
1.437,   5.470e-4
1.439,   6.013e-4
1.441,   6.611e-4
1.443,   7.266e-4
1.445,   7.987e-4
1.447,   8.768e-4
1.449,   9.623e-4
1.451,   1.055e-3
1.453,   1.156e-3
1.455,   1.266e-3
1.457,   1.384e-3
1.459,   1.511e-3
1.461,   1.650e-3
1.463,   1.798e-3
1.465,   1.957e-3
1.467,   2.130e-3
1.469,   2.312e-3
1.471,   2.506e-3
1.473,   2.710e-3
1.475,   2.928e-3
1.477,   3.159e-3
1.479,   3.405e-3
1.481,   3.670e-3
1.483,   3.939e-3
1.485,   4.243e-3
1.487,   4.546e-3
1.489,   4.869e-3
1.491,   5.243e-3
1.493,   5.599e-3
1.495,   5.935e-3
1.497,   6.320e-3
1.499,   6.849e-3
1.501,   7.440e-3
1.503,   7.817e-3
1.505,   8.283e-3
1.507,   8.753e-3
1.509,   9.155e-3
1.511,   9.777e-3
1.512,   1.006e-2