Folder: DASH/Experimental Records, Raw Data, and Supplementary Notes and Figures/batch3/final500 (part 3)

File: B3_VARIANCE_500_#3_Full(#11)-273mV.txt
Feb. 22, 2023   14:36:14
Linear Sweep Voltammetry
File: d:\current work\al_oer\electrochemical test data\batch 3\500\B3_VARIANCE_500_#3_Full(#11)-273mV.txt
Data Source:  Experiment
Instrument Model:  CHI660E
Header:
Note:

Init E (V) = 1.100

Final E (V) = 1.565

Scan Rate (V/s) = 0.010
Sample Interval (V) = 0.001
Quiet Time (sec) = 2
Sensitivity (A/V) = 0.001
Comp R (ohm) = 4.8

Results:

Channel 1:

Potential/V, Current/A
1.100,   4.647e-5
1.102,   5.971e-5
1.104,   5.655e-5
1.106,   5.405e-5
1.108,   5.235e-5
1.110,   5.089e-5
1.112,   4.954e-5
1.114,   4.849e-5
1.116,   4.750e-5
1.118,   4.703e-5
1.120,   4.643e-5
1.122,   4.569e-5
1.124,   4.522e-5
1.126,   4.498e-5
1.128,   4.449e-5
1.130,   4.409e-5
1.132,   4.386e-5
1.134,   4.387e-5
1.136,   4.358e-5
1.138,   4.326e-5
1.140,   4.320e-5
1.142,   4.312e-5
1.144,   4.298e-5
1.146,   4.284e-5
1.148,   4.269e-5
1.150,   4.282e-5
1.152,   4.273e-5
1.154,   4.242e-5
1.156,   4.246e-5
1.158,   4.267e-5
1.160,   4.255e-5
1.162,   4.239e-5
1.164,   4.237e-5
1.166,   4.251e-5
1.168,   4.251e-5
1.170,   4.236e-5
1.172,   4.255e-5
1.174,   4.256e-5
1.176,   4.250e-5
1.178,   4.248e-5
1.180,   4.243e-5
1.182,   4.267e-5
1.184,   4.276e-5
1.186,   4.254e-5
1.188,   4.260e-5
1.190,   4.282e-5
1.192,   4.280e-5
1.194,   4.274e-5
1.196,   4.279e-5
1.198,   4.332e-5
1.200,   4.304e-5
1.202,   4.274e-5
1.204,   4.293e-5
1.206,   4.324e-5
1.208,   4.315e-5
1.210,   4.333e-5
1.212,   4.319e-5
1.214,   4.348e-5
1.216,   4.390e-5
1.218,   4.301e-5
1.220,   4.340e-5
1.222,   4.369e-5
1.224,   4.375e-5
1.226,   4.368e-5
1.228,   4.382e-5
1.230,   4.406e-5
1.232,   4.404e-5
1.234,   4.390e-5
1.236,   4.416e-5
1.238,   4.437e-5
1.240,   4.444e-5
1.242,   4.438e-5
1.244,   4.441e-5
1.246,   4.468e-5
1.248,   4.475e-5
1.250,   4.463e-5
1.252,   4.476e-5
1.254,   4.504e-5
1.256,   4.509e-5
1.258,   4.508e-5
1.260,   4.512e-5
1.262,   4.549e-5
1.264,   4.547e-5
1.266,   4.539e-5
1.268,   4.568e-5
1.270,   4.584e-5
1.272,   4.587e-5
1.274,   4.609e-5
1.276,   4.603e-5
1.278,   4.640e-5
1.280,   4.649e-5
1.282,   4.642e-5
1.284,   4.656e-5
1.286,   4.695e-5
1.288,   4.703e-5
1.290,   4.706e-5
1.292,   4.712e-5
1.294,   4.757e-5
1.296,   4.759e-5
1.298,   4.761e-5
1.300,   4.791e-5
1.302,   4.817e-5
1.304,   4.834e-5
1.306,   4.843e-5
1.308,   4.841e-5
1.310,   4.896e-5
1.312,   4.908e-5
1.314,   4.911e-5
1.316,   4.936e-5
1.318,   4.975e-5
1.320,   4.990e-5
1.322,   4.996e-5
1.324,   5.018e-5
1.326,   5.086e-5
1.328,   5.082e-5
1.330,   5.087e-5
1.332,   5.126e-5
1.334,   5.164e-5
1.336,   5.178e-5
1.338,   5.217e-5
1.340,   5.224e-5
1.342,   5.290e-5
1.344,   5.297e-5
1.346,   5.328e-5
1.348,   5.358e-5
1.350,   5.411e-5
1.352,   5.440e-5
1.354,   5.469e-5
1.356,   5.506e-5
1.358,   5.569e-5
1.360,   5.582e-5
1.362,   5.621e-5
1.364,   5.688e-5
1.366,   5.727e-5
1.368,   5.764e-5
1.370,   5.823e-5
1.372,   5.864e-5
1.374,   5.932e-5
1.376,   5.999e-5
1.378,   6.038e-5
1.380,   6.124e-5
1.382,   6.195e-5
1.384,   6.259e-5
1.386,   6.333e-5
1.388,   6.415e-5
1.390,   6.544e-5
1.392,   6.632e-5
1.394,   6.726e-5
1.396,   6.851e-5
1.398,   7.004e-5
1.400,   7.137e-5
1.402,   7.288e-5
1.404,   7.444e-5
1.406,   7.665e-5
1.408,   7.923e-5
1.410,   8.077e-5
1.412,   8.335e-5
1.414,   8.636e-5
1.416,   8.945e-5
1.418,   9.269e-5
1.420,   9.653e-5
1.422,   1.009e-4
1.424,   1.056e-4
1.426,   1.106e-4
1.428,   1.165e-4
1.430,   1.235e-4
1.432,   1.299e-4
1.434,   1.375e-4
1.436,   1.462e-4
1.438,   1.561e-4
1.440,   1.667e-4
1.442,   1.781e-4
1.444,   1.910e-4
1.446,   2.051e-4
1.448,   2.208e-4
1.450,   2.372e-4
1.452,   2.557e-4
1.454,   2.761e-4
1.456,   2.978e-4
1.458,   3.217e-4
1.460,   3.479e-4
1.462,   3.762e-4
1.464,   4.074e-4
1.466,   4.413e-4
1.468,   4.780e-4
1.470,   5.179e-4
1.472,   5.609e-4
1.474,   6.071e-4
1.476,   6.568e-4
1.478,   7.108e-4
1.480,   7.688e-4
1.482,   8.308e-4
1.484,   8.986e-4
1.486,   9.723e-4
1.488,   1.052e-3
1.490,   1.137e-3
1.492,   1.229e-3
1.494,   1.327e-3
1.496,   1.434e-3
1.498,   1.546e-3
1.500,   1.668e-3
1.502,   1.798e-3
1.504,   1.937e-3
1.506,   2.084e-3
1.508,   2.242e-3
1.510,   2.411e-3
1.512,   2.587e-3
1.514,   2.778e-3
1.516,   2.976e-3
1.518,   3.193e-3
1.520,   3.433e-3
1.522,   3.675e-3
1.524,   3.928e-3
1.526,   4.195e-3
1.528,   4.471e-3
1.530,   4.780e-3
1.532,   5.109e-3
1.534,   5.430e-3
1.536,   5.754e-3
1.538,   6.161e-3
1.540,   6.532e-3
1.542,   6.897e-3
1.544,   7.310e-3
1.546,   7.672e-3
1.548,   8.193e-3
1.550,   8.812e-3
1.552,   9.302e-3
1.554,   9.712e-3
1.556,   1.006e-2
1.558,   1.006e-2
1.560,   1.006e-2
1.562,   1.006e-2
1.564,   1.006e-2
1.565,   1.006e-2

File: B3_VARIANCE_500_#3_High_Quality(#24)-299mV.txt
Feb. 24, 2023   14:57:59
Linear Sweep Voltammetry
File: d:\current work\al_oer\electrochemical test data\batch 3\500\B3_VARIANCE_500_#3_High_Quality(#24)-299mV.txt
Data Source:  Experiment
Instrument Model:  CHI660E
Header:
Note:

Init E (V) = 1.099

Final E (V) = 1.632

Scan Rate (V/s) = 0.010
Sample Interval (V) = 0.001
Quiet Time (sec) = 2
Sensitivity (A/V) = 0.001
Comp R (ohm) = 4.6

Results:

Channel 1:

Potential/V, Current/A
1.099,   1.712e-4
1.101,   1.539e-4
1.103,   1.379e-4
1.105,   1.251e-4
1.107,   1.145e-4
1.109,   1.059e-4
1.111,   9.871e-5
1.113,   9.233e-5
1.115,   8.692e-5
1.117,   8.231e-5
1.119,   7.832e-5
1.121,   7.482e-5
1.123,   7.164e-5
1.125,   6.893e-5
1.127,   6.638e-5
1.129,   6.421e-5
1.131,   6.203e-5
1.133,   6.017e-5
1.135,   5.839e-5
1.137,   5.673e-5
1.139,   5.525e-5
1.141,   5.409e-5
1.143,   5.303e-5
1.145,   5.184e-5
1.147,   5.089e-5
1.149,   5.001e-5
1.151,   4.900e-5
1.153,   4.840e-5
1.155,   4.768e-5
1.157,   4.702e-5
1.159,   4.644e-5
1.161,   4.604e-5
1.163,   4.562e-5
1.165,   4.510e-5
1.167,   4.477e-5
1.169,   4.430e-5
1.171,   4.395e-5
1.173,   4.368e-5
1.175,   4.351e-5
1.177,   4.318e-5
1.179,   4.301e-5
1.181,   4.281e-5
1.183,   4.272e-5
1.185,   4.243e-5
1.187,   4.218e-5
1.189,   4.208e-5
1.191,   4.213e-5
1.193,   4.202e-5
1.195,   4.183e-5
1.197,   4.192e-5
1.199,   4.185e-5
1.201,   4.181e-5
1.203,   4.188e-5
1.205,   4.178e-5
1.207,   4.173e-5
1.209,   4.179e-5
1.211,   4.180e-5
1.213,   4.178e-5
1.215,   4.177e-5
1.217,   4.181e-5
1.219,   4.186e-5
1.221,   4.199e-5
1.223,   4.201e-5
1.225,   4.209e-5
1.227,   4.221e-5
1.229,   4.228e-5
1.231,   4.241e-5
1.233,   4.244e-5
1.235,   4.254e-5
1.237,   4.277e-5
1.239,   4.282e-5
1.241,   4.292e-5
1.243,   4.297e-5
1.245,   4.315e-5
1.247,   4.327e-5
1.249,   4.326e-5
1.251,   4.338e-5
1.253,   4.365e-5
1.255,   4.386e-5
1.257,   4.397e-5
1.259,   4.406e-5
1.261,   4.426e-5
1.263,   4.441e-5
1.265,   4.452e-5
1.267,   4.466e-5
1.269,   4.488e-5
1.271,   4.501e-5
1.273,   4.512e-5
1.275,   4.531e-5
1.277,   4.545e-5
1.279,   4.563e-5
1.281,   4.571e-5
1.283,   4.593e-5
1.285,   4.616e-5
1.287,   4.639e-5
1.289,   4.646e-5
1.291,   4.656e-5
1.293,   4.677e-5
1.295,   4.692e-5
1.297,   4.713e-5
1.299,   4.732e-5
1.301,   4.763e-5
1.303,   4.786e-5
1.305,   4.795e-5
1.307,   4.810e-5
1.309,   4.826e-5
1.311,   4.853e-5
1.313,   4.878e-5
1.315,   4.888e-5
1.317,   4.915e-5
1.319,   4.935e-5
1.321,   4.954e-5
1.323,   4.966e-5
1.325,   4.997e-5
1.327,   5.015e-5
1.329,   5.023e-5
1.331,   5.052e-5
1.333,   5.079e-5
1.335,   5.102e-5
1.337,   5.118e-5
1.339,   5.135e-5
1.341,   5.170e-5
1.343,   5.196e-5
1.345,   5.220e-5
1.347,   5.234e-5
1.349,   5.265e-5
1.351,   5.290e-5
1.353,   5.306e-5
1.355,   5.341e-5
1.357,   5.366e-5
1.359,   5.387e-5
1.361,   5.424e-5
1.363,   5.461e-5
1.365,   5.493e-5
1.367,   5.528e-5
1.369,   5.568e-5
1.371,   5.606e-5
1.373,   5.660e-5
1.375,   5.699e-5
1.377,   5.734e-5
1.379,   5.771e-5
1.381,   5.824e-5
1.383,   5.871e-5
1.385,   5.918e-5
1.387,   5.983e-5
1.389,   6.058e-5
1.391,   6.128e-5
1.393,   6.192e-5
1.395,   6.267e-5
1.397,   6.364e-5
1.399,   6.450e-5
1.401,   6.559e-5
1.403,   6.671e-5
1.405,   6.796e-5
1.407,   6.948e-5
1.409,   7.100e-5
1.411,   7.274e-5
1.413,   7.480e-5
1.415,   7.702e-5
1.417,   7.940e-5
1.419,   8.216e-5
1.421,   8.517e-5
1.423,   8.854e-5
1.425,   9.228e-5
1.427,   9.664e-5
1.429,   1.014e-4
1.431,   1.065e-4
1.433,   1.122e-4
1.435,   1.187e-4
1.437,   1.257e-4
1.439,   1.335e-4
1.441,   1.420e-4
1.443,   1.512e-4
1.445,   1.616e-4
1.447,   1.725e-4
1.449,   1.844e-4
1.451,   1.975e-4
1.453,   2.117e-4
1.455,   2.271e-4
1.457,   2.436e-4
1.459,   2.612e-4
1.461,   2.802e-4
1.463,   3.004e-4
1.465,   3.222e-4
1.467,   3.454e-4
1.469,   3.701e-4
1.471,   3.962e-4
1.473,   4.239e-4
1.475,   4.535e-4
1.477,   4.843e-4
1.479,   5.167e-4
1.481,   5.511e-4
1.483,   5.871e-4
1.485,   6.249e-4
1.487,   6.647e-4
1.489,   7.059e-4
1.491,   7.492e-4
1.493,   7.939e-4
1.495,   8.406e-4
1.497,   8.896e-4
1.499,   9.398e-4
1.501,   9.925e-4
1.503,   1.046e-3
1.505,   1.102e-3
1.507,   1.161e-3
1.509,   1.220e-3
1.511,   1.282e-3
1.513,   1.345e-3
1.515,   1.410e-3
1.517,   1.479e-3
1.519,   1.550e-3
1.521,   1.621e-3
1.523,   1.694e-3
1.525,   1.769e-3
1.527,   1.848e-3
1.529,   1.928e-3
1.531,   2.010e-3
1.533,   2.093e-3
1.535,   2.179e-3
1.537,   2.269e-3
1.539,   2.358e-3
1.541,   2.462e-3
1.543,   2.555e-3
1.545,   2.655e-3
1.547,   2.754e-3
1.549,   2.863e-3
1.551,   2.970e-3
1.553,   3.079e-3
1.555,   3.190e-3
1.557,   3.306e-3
1.559,   3.424e-3
1.561,   3.563e-3
1.563,   3.719e-3
1.565,   3.842e-3
1.567,   3.987e-3
1.569,   4.112e-3
1.571,   4.246e-3
1.573,   4.396e-3
1.575,   4.541e-3
1.577,   4.696e-3
1.579,   4.845e-3
1.581,   5.014e-3
1.583,   5.247e-3
1.585,   5.403e-3
1.587,   5.575e-3
1.589,   5.755e-3
1.591,   5.917e-3
1.593,   6.119e-3
1.595,   6.346e-3
1.597,   6.516e-3
1.599,   6.691e-3
1.601,   6.890e-3
1.603,   7.140e-3
1.605,   7.334e-3
1.607,   7.491e-3
1.609,   7.691e-3
1.611,   7.883e-3
1.613,   8.074e-3
1.615,   8.393e-3
1.617,   8.600e-3
1.619,   8.825e-3
1.621,   9.030e-3
1.623,   9.373e-3
1.625,   9.560e-3
1.627,   9.904e-3
1.629,   1.007e-2
1.631,   1.007e-2
1.632,   1.007e-2

File: B3_VARIANCE_500_#4_Full(#12)-236mV.txt
Feb. 24, 2023   15:25:43
Linear Sweep Voltammetry
File: d:\current work\al_oer\electrochemical test data\batch 3\500\B3_VARIANCE_500_#4_Full(#12)-236mV.txt
Data Source:  Experiment
Instrument Model:  CHI660E
Header:
Note:

Init E (V) = 1.099

Final E (V) = 1.520

Scan Rate (V/s) = 0.010
Sample Interval (V) = 0.001
Quiet Time (sec) = 2
Sensitivity (A/V) = 0.001
Comp R (ohm) = 4.6

Results:

Channel 1:

Potential/V, Current/A
1.099,   1.076e-4
1.101,   1.143e-4
1.103,   1.055e-4
1.105,   9.834e-5
1.107,   9.387e-5
1.109,   8.908e-5
1.111,   8.538e-5
1.113,   8.226e-5
1.115,   8.006e-5
1.117,   7.775e-5
1.119,   7.577e-5
1.121,   7.435e-5
1.123,   7.285e-5
1.125,   7.169e-5
1.127,   7.052e-5
1.129,   6.922e-5
1.131,   6.863e-5
1.133,   6.834e-5
1.135,   6.794e-5
1.137,   6.739e-5
1.139,   6.669e-5
1.141,   6.663e-5
1.143,   6.646e-5
1.145,   6.605e-5
1.147,   6.598e-5
1.149,   6.635e-5
1.151,   6.617e-5
1.153,   6.601e-5
1.155,   6.607e-5
1.157,   6.648e-5
1.159,   6.648e-5
1.161,   6.653e-5
1.163,   6.682e-5
1.165,   6.696e-5
1.167,   6.689e-5
1.169,   6.716e-5
1.171,   6.778e-5
1.173,   6.825e-5
1.175,   6.862e-5
1.177,   6.866e-5
1.179,   6.902e-5
1.181,   6.975e-5
1.183,   7.015e-5
1.185,   7.029e-5
1.187,   7.055e-5
1.189,   7.141e-5
1.191,   7.176e-5
1.193,   7.191e-5
1.195,   7.246e-5
1.197,   7.338e-5
1.199,   7.348e-5
1.201,   7.369e-5
1.203,   7.404e-5
1.205,   7.477e-5
1.207,   7.495e-5
1.209,   7.532e-5
1.211,   7.555e-5
1.213,   7.614e-5
1.215,   7.624e-5
1.217,   7.618e-5
1.219,   7.659e-5
1.221,   7.679e-5
1.223,   7.678e-5
1.225,   7.642e-5
1.227,   7.649e-5
1.229,   7.664e-5
1.231,   7.660e-5
1.233,   7.630e-5
1.235,   7.628e-5
1.237,   7.636e-5
1.239,   7.615e-5
1.241,   7.580e-5
1.243,   7.563e-5
1.245,   7.569e-5
1.247,   7.552e-5
1.249,   7.506e-5
1.251,   7.479e-5
1.253,   7.497e-5
1.255,   7.463e-5
1.257,   7.416e-5
1.259,   7.405e-5
1.261,   7.412e-5
1.263,   7.384e-5
1.265,   7.356e-5
1.267,   7.338e-5
1.269,   7.349e-5
1.271,   7.303e-5
1.273,   7.292e-5
1.275,   7.265e-5
1.277,   7.276e-5
1.279,   7.253e-5
1.281,   7.230e-5
1.283,   7.210e-5
1.285,   7.226e-5
1.287,   7.209e-5
1.289,   7.175e-5
1.291,   7.173e-5
1.293,   7.201e-5
1.295,   7.174e-5
1.297,   7.156e-5
1.299,   7.176e-5
1.301,   7.184e-5
1.303,   7.190e-5
1.305,   7.163e-5
1.307,   7.168e-5
1.309,   7.197e-5
1.311,   7.205e-5
1.313,   7.177e-5
1.315,   7.187e-5
1.317,   7.236e-5
1.319,   7.246e-5
1.321,   7.226e-5
1.323,   7.238e-5
1.325,   7.308e-5
1.327,   7.299e-5
1.329,   7.306e-5
1.331,   7.327e-5
1.333,   7.358e-5
1.335,   7.384e-5
1.337,   7.397e-5
1.339,   7.398e-5
1.341,   7.464e-5
1.343,   7.487e-5
1.345,   7.498e-5
1.347,   7.549e-5
1.349,   7.623e-5
1.351,   7.639e-5
1.353,   7.668e-5
1.355,   7.712e-5
1.357,   7.802e-5
1.359,   7.838e-5
1.361,   7.884e-5
1.363,   7.961e-5
1.365,   8.042e-5
1.367,   8.109e-5
1.369,   8.188e-5
1.371,   8.268e-5
1.373,   8.410e-5
1.375,   8.518e-5
1.377,   8.606e-5
1.379,   8.740e-5
1.381,   8.937e-5
1.383,   9.084e-5
1.385,   9.280e-5
1.387,   9.472e-5
1.389,   9.779e-5
1.391,   1.003e-4
1.393,   1.031e-4
1.395,   1.067e-4
1.397,   1.108e-4
1.399,   1.153e-4
1.401,   1.202e-4
1.403,   1.257e-4
1.405,   1.323e-4
1.407,   1.395e-4
1.409,   1.473e-4
1.411,   1.565e-4
1.413,   1.673e-4
1.415,   1.789e-4
1.417,   1.918e-4
1.419,   2.068e-4
1.421,   2.237e-4
1.423,   2.425e-4
1.425,   2.636e-4
1.427,   2.881e-4
1.429,   3.146e-4
1.431,   3.444e-4
1.433,   3.777e-4
1.435,   4.147e-4
1.437,   4.567e-4
1.439,   5.030e-4
1.441,   5.542e-4
1.443,   6.110e-4
1.445,   6.755e-4
1.447,   7.456e-4
1.449,   8.223e-4
1.451,   9.073e-4
1.453,   1.002e-3
1.455,   1.105e-3
1.457,   1.218e-3
1.459,   1.341e-3
1.461,   1.477e-3
1.463,   1.622e-3
1.465,   1.786e-3
1.467,   1.956e-3
1.469,   2.138e-3
1.471,   2.339e-3
1.473,   2.554e-3
1.475,   2.780e-3
1.477,   3.028e-3
1.479,   3.301e-3
1.481,   3.567e-3
1.483,   3.868e-3
1.485,   4.166e-3
1.487,   4.523e-3
1.489,   4.845e-3
1.491,   5.232e-3
1.493,   5.578e-3
1.495,   5.996e-3
1.497,   6.412e-3
1.499,   6.807e-3
1.501,   7.252e-3
1.503,   7.794e-3
1.505,   8.186e-3
1.507,   8.659e-3
1.509,   9.226e-3
1.511,   9.647e-3
1.513,   1.007e-2
1.515,   1.007e-2
1.517,   1.007e-2
1.519,   1.007e-2
1.520,   1.007e-2