Folder: DASH/Experimental Records, Raw Data, and Supplementary Notes and Figures/batch3/final500 (part 2)

File: B3_BEST_500_#5_Full-184mV.txt
Feb. 22, 2023   13:22:16
Linear Sweep Voltammetry
File: d:\current work\al_oer\electrochemical test data\batch 3\500\B3_BEST_500_#5_Full-184mV.txt
Data Source:  Experiment
Instrument Model:  CHI660E
Header:
Note:

Init E (V) = 1.099

Final E (V) = 1.448

Scan Rate (V/s) = 0.010
Sample Interval (V) = 0.001
Quiet Time (sec) = 2
Sensitivity (A/V) = 0.001
Comp R (ohm) = 5.6

Results:

Channel 1:

Potential/V, Current/A
1.099,   2.992e-4
1.101,   2.827e-4
1.103,   2.454e-4
1.105,   2.193e-4
1.107,   2.018e-4
1.109,   1.887e-4
1.111,   1.786e-4
1.113,   1.707e-4
1.115,   1.641e-4
1.117,   1.595e-4
1.119,   1.554e-4
1.121,   1.516e-4
1.123,   1.485e-4
1.125,   1.466e-4
1.127,   1.444e-4
1.129,   1.426e-4
1.131,   1.410e-4
1.133,   1.404e-4
1.135,   1.391e-4
1.137,   1.378e-4
1.139,   1.373e-4
1.141,   1.368e-4
1.143,   1.363e-4
1.145,   1.357e-4
1.147,   1.351e-4
1.149,   1.352e-4
1.151,   1.348e-4
1.153,   1.345e-4
1.155,   1.342e-4
1.157,   1.346e-4
1.159,   1.345e-4
1.161,   1.343e-4
1.163,   1.341e-4
1.165,   1.350e-4
1.167,   1.348e-4
1.169,   1.345e-4
1.171,   1.349e-4
1.173,   1.353e-4
1.175,   1.354e-4
1.177,   1.353e-4
1.179,   1.355e-4
1.181,   1.366e-4
1.183,   1.361e-4
1.185,   1.369e-4
1.187,   1.353e-4
1.189,   1.375e-4
1.191,   1.391e-4
1.193,   1.393e-4
1.195,   1.395e-4
1.197,   1.389e-4
1.199,   1.366e-4
1.201,   1.404e-4
1.203,   1.385e-4
1.205,   1.413e-4
1.207,   1.393e-4
1.209,   1.396e-4
1.211,   1.416e-4
1.213,   1.419e-4
1.215,   1.413e-4
1.217,   1.425e-4
1.219,   1.409e-4
1.221,   1.372e-4
1.223,   1.451e-4
1.225,   1.422e-4
1.227,   1.449e-4
1.229,   1.505e-4
1.231,   1.423e-4
1.233,   1.445e-4
1.235,   1.430e-4
1.237,   1.489e-4
1.239,   1.479e-4
1.241,   1.410e-4
1.243,   1.507e-4
1.245,   1.501e-4
1.247,   1.445e-4
1.249,   1.413e-4
1.251,   1.537e-4
1.253,   1.578e-4
1.255,   1.503e-4
1.257,   1.502e-4
1.259,   1.445e-4
1.261,   1.409e-4
1.263,   1.437e-4
1.265,   1.459e-4
1.267,   1.435e-4
1.269,   1.464e-4
1.271,   1.545e-4
1.273,   1.623e-4
1.275,   1.622e-4
1.277,   1.530e-4
1.279,   1.470e-4
1.281,   1.554e-4
1.283,   1.634e-4
1.285,   1.495e-4
1.287,   1.549e-4
1.289,   1.625e-4
1.291,   1.536e-4
1.293,   1.689e-4
1.295,   1.525e-4
1.297,   1.665e-4
1.299,   1.601e-4
1.301,   1.626e-4
1.303,   1.641e-4
1.305,   1.589e-4
1.307,   1.649e-4
1.309,   1.685e-4
1.311,   1.666e-4
1.313,   1.628e-4
1.315,   1.671e-4
1.317,   1.676e-4
1.319,   1.700e-4
1.321,   1.733e-4
1.323,   1.732e-4
1.325,   1.741e-4
1.327,   1.745e-4
1.329,   1.791e-4
1.331,   1.791e-4
1.333,   1.737e-4
1.335,   1.793e-4
1.337,   1.901e-4
1.339,   1.786e-4
1.341,   1.910e-4
1.343,   1.938e-4
1.345,   1.926e-4
1.347,   1.939e-4
1.349,   2.087e-4
1.351,   1.902e-4
1.353,   2.090e-4
1.355,   2.236e-4
1.357,   2.183e-4
1.359,   2.092e-4
1.361,   2.104e-4
1.363,   2.184e-4
1.365,   2.257e-4
1.367,   2.324e-4
1.369,   2.433e-4
1.371,   2.641e-4
1.373,   2.950e-4
1.375,   3.049e-4
1.377,   2.966e-4
1.379,   3.305e-4
1.381,   3.593e-4
1.383,   3.632e-4
1.385,   4.157e-4
1.387,   4.251e-4
1.389,   4.793e-4
1.391,   5.214e-4
1.393,   5.582e-4
1.395,   6.294e-4
1.397,   6.995e-4
1.399,   7.693e-4
1.401,   8.531e-4
1.403,   9.542e-4
1.405,   1.071e-3
1.407,   1.203e-3
1.409,   1.350e-3
1.411,   1.520e-3
1.413,   1.709e-3
1.415,   1.916e-3
1.417,   2.145e-3
1.419,   2.431e-3
1.421,   2.704e-3
1.423,   3.056e-3
1.425,   3.425e-3
1.427,   3.923e-3
1.429,   4.458e-3
1.431,   5.056e-3
1.433,   5.722e-3
1.435,   6.544e-3
1.437,   7.358e-3
1.439,   8.378e-3
1.441,   9.354e-3
1.443,   1.006e-2
1.445,   1.006e-2
1.447,   1.006e-2
1.448,   1.006e-2

File: B3_BEST_500_#5_High_Quality(#18)-220mV.txt
Feb. 22, 2023   14:51:05
Linear Sweep Voltammetry
File: d:\current work\al_oer\electrochemical test data\batch 3\500\B3_BEST_500_#5_High_Quality(#18)-220mV.txt
Data Source:  Experiment
Instrument Model:  CHI660E
Header:
Note:

Init E (V) = 1.098

Final E (V) = 1.507

Scan Rate (V/s) = 0.010
Sample Interval (V) = 0.001
Quiet Time (sec) = 2
Sensitivity (A/V) = 0.001
Comp R (ohm) = 6.4

Results:

Channel 1:

Potential/V, Current/A
1.098,   6.576e-4
1.100,   5.924e-4
1.102,   5.334e-4
1.104,   4.823e-4
1.106,   4.430e-4
1.108,   4.074e-4
1.110,   3.758e-4
1.112,   3.509e-4
1.114,   3.289e-4
1.116,   3.103e-4
1.118,   2.930e-4
1.120,   2.783e-4
1.122,   2.659e-4
1.124,   2.542e-4
1.126,   2.442e-4
1.128,   2.370e-4
1.130,   2.284e-4
1.132,   2.218e-4
1.134,   2.165e-4
1.136,   2.115e-4
1.138,   2.069e-4
1.140,   2.027e-4
1.142,   1.992e-4
1.144,   1.962e-4
1.146,   1.932e-4
1.148,   1.921e-4
1.150,   1.899e-4
1.152,   1.877e-4
1.154,   1.860e-4
1.156,   1.846e-4
1.158,   1.838e-4
1.160,   1.838e-4
1.162,   1.831e-4
1.164,   1.827e-4
1.166,   1.829e-4
1.168,   1.824e-4
1.170,   1.828e-4
1.172,   1.828e-4
1.174,   1.830e-4
1.176,   1.829e-4
1.178,   1.832e-4
1.180,   1.837e-4
1.182,   1.841e-4
1.184,   1.848e-4
1.186,   1.853e-4
1.188,   1.859e-4
1.190,   1.864e-4
1.192,   1.874e-4
1.194,   1.883e-4
1.196,   1.890e-4
1.198,   1.898e-4
1.200,   1.907e-4
1.202,   1.917e-4
1.204,   1.926e-4
1.206,   1.935e-4
1.208,   1.942e-4
1.210,   1.948e-4
1.212,   1.957e-4
1.214,   1.964e-4
1.216,   1.970e-4
1.218,   1.978e-4
1.220,   1.983e-4
1.222,   1.985e-4
1.224,   1.989e-4
1.226,   1.994e-4
1.228,   2.002e-4
1.230,   2.007e-4
1.232,   2.011e-4
1.234,   2.016e-4
1.236,   2.020e-4
1.238,   2.021e-4
1.240,   2.020e-4
1.242,   2.022e-4
1.244,   2.024e-4
1.246,   2.024e-4
1.248,   2.025e-4
1.250,   2.022e-4
1.252,   2.021e-4
1.254,   2.025e-4
1.256,   2.023e-4
1.258,   2.016e-4
1.260,   2.016e-4
1.262,   2.014e-4
1.264,   2.007e-4
1.266,   2.008e-4
1.268,   2.001e-4
1.270,   1.998e-4
1.272,   1.993e-4
1.274,   1.985e-4
1.276,   1.979e-4
1.278,   1.973e-4
1.280,   1.968e-4
1.282,   1.959e-4
1.284,   1.955e-4
1.286,   1.946e-4
1.288,   1.938e-4
1.290,   1.934e-4
1.292,   1.927e-4
1.294,   1.916e-4
1.296,   1.906e-4
1.298,   1.898e-4
1.300,   1.884e-4
1.302,   1.880e-4
1.304,   1.872e-4
1.306,   1.861e-4
1.308,   1.856e-4
1.310,   1.849e-4
1.312,   1.840e-4
1.314,   1.832e-4
1.316,   1.826e-4
1.318,   1.820e-4
1.320,   1.816e-4
1.322,   1.809e-4
1.324,   1.812e-4
1.326,   1.805e-4
1.328,   1.801e-4
1.330,   1.795e-4
1.332,   1.792e-4
1.334,   1.790e-4
1.336,   1.785e-4
1.338,   1.782e-4
1.340,   1.783e-4
1.342,   1.783e-4
1.344,   1.784e-4
1.346,   1.785e-4
1.348,   1.789e-4
1.350,   1.794e-4
1.352,   1.796e-4
1.354,   1.803e-4
1.356,   1.813e-4
1.358,   1.826e-4
1.360,   1.833e-4
1.362,   1.849e-4
1.364,   1.860e-4
1.366,   1.873e-4
1.368,   1.894e-4
1.370,   1.903e-4
1.372,   1.925e-4
1.374,   1.956e-4
1.376,   1.980e-4
1.378,   2.019e-4
1.380,   2.054e-4
1.382,   2.089e-4
1.384,   2.110e-4
1.386,   2.176e-4
1.388,   2.225e-4
1.390,   2.291e-4
1.392,   2.369e-4
1.394,   2.438e-4
1.396,   2.544e-4
1.398,   2.646e-4
1.400,   2.794e-4
1.402,   2.915e-4
1.404,   3.095e-4
1.406,   3.300e-4
1.408,   3.517e-4
1.410,   3.754e-4
1.412,   4.032e-4
1.414,   4.286e-4
1.416,   4.608e-4
1.418,   4.972e-4
1.420,   5.352e-4
1.422,   5.795e-4
1.424,   6.296e-4
1.426,   6.814e-4
1.428,   7.512e-4
1.430,   8.219e-4
1.432,   8.908e-4
1.434,   9.727e-4
1.436,   1.055e-3
1.438,   1.146e-3
1.440,   1.249e-3
1.442,   1.355e-3
1.444,   1.476e-3
1.446,   1.601e-3
1.448,   1.729e-3
1.450,   1.875e-3
1.452,   2.033e-3
1.454,   2.214e-3
1.456,   2.396e-3
1.458,   2.594e-3
1.460,   2.822e-3
1.462,   3.067e-3
1.464,   3.302e-3
1.466,   3.548e-3
1.468,   3.840e-3
1.470,   4.123e-3
1.472,   4.436e-3
1.474,   4.789e-3
1.476,   5.118e-3
1.478,   5.532e-3
1.480,   5.949e-3
1.482,   6.345e-3
1.484,   6.767e-3
1.486,   7.208e-3
1.488,   7.656e-3
1.490,   8.099e-3
1.492,   8.547e-3
1.494,   9.095e-3
1.496,   1.006e-2
1.498,   1.006e-2
1.500,   1.006e-2
1.502,   1.006e-2
1.504,   1.006e-2
1.506,   1.006e-2
1.507,   1.006e-2

File: B3_BEST_500_#7_High_Quality(#20)-217mV.txt
Feb. 24, 2023   14:06:58
Linear Sweep Voltammetry
File: d:\current work\al_oer\electrochemical test data\batch 3\500\B3_BEST_500_#7_High_Quality(#20)-217mV.txt
Data Source:  Experiment
Instrument Model:  CHI660E
Header:
Note:

Init E (V) = 1.102

Final E (V) = 1.502

Scan Rate (V/s) = 0.010
Sample Interval (V) = 0.001
Quiet Time (sec) = 2
Sensitivity (A/V) = 0.001
Comp R (ohm) = 4.8

Results:

Channel 1:

Potential/V, Current/A
1.102,   7.912e-5
1.104,   9.854e-5
1.106,   9.189e-5
1.108,   8.672e-5
1.110,   8.284e-5
1.112,   8.001e-5
1.114,   7.766e-5
1.116,   7.566e-5
1.118,   7.405e-5
1.120,   7.306e-5
1.122,   7.212e-5
1.124,   7.118e-5
1.126,   7.040e-5
1.128,   7.011e-5
1.130,   6.975e-5
1.132,   6.920e-5
1.134,   6.887e-5
1.136,   6.897e-5
1.138,   6.883e-5
1.140,   6.847e-5
1.142,   6.853e-5
1.144,   6.861e-5
1.146,   6.869e-5
1.148,   6.873e-5
1.150,   6.866e-5
1.152,   6.896e-5
1.154,   6.909e-5
1.156,   6.912e-5
1.158,   6.921e-5
1.160,   6.970e-5
1.162,   6.984e-5
1.164,   6.983e-5
1.166,   7.008e-5
1.168,   7.070e-5
1.170,   7.087e-5
1.172,   7.106e-5
1.174,   7.134e-5
1.176,   7.174e-5
1.178,   7.204e-5
1.180,   7.221e-5
1.182,   7.233e-5
1.184,   7.296e-5
1.186,   7.341e-5
1.188,   7.350e-5
1.190,   7.359e-5
1.192,   7.425e-5
1.194,   7.455e-5
1.196,   7.462e-5
1.198,   7.491e-5
1.200,   7.564e-5
1.202,   7.584e-5
1.204,   7.592e-5
1.206,   7.622e-5
1.208,   7.669e-5
1.210,   7.687e-5
1.212,   7.711e-5
1.214,   7.700e-5
1.216,   7.764e-5
1.218,   7.793e-5
1.220,   7.779e-5
1.222,   7.799e-5
1.224,   7.850e-5
1.226,   7.888e-5
1.228,   7.864e-5
1.230,   7.858e-5
1.232,   7.918e-5
1.234,   7.935e-5
1.236,   7.908e-5
1.238,   7.936e-5
1.240,   7.961e-5
1.242,   7.979e-5
1.244,   7.960e-5
1.246,   7.957e-5
1.248,   8.002e-5
1.250,   8.004e-5
1.252,   7.983e-5
1.254,   7.973e-5
1.256,   8.013e-5
1.258,   8.021e-5
1.260,   7.987e-5
1.262,   7.982e-5
1.264,   8.031e-5
1.266,   8.023e-5
1.268,   8.003e-5
1.270,   7.997e-5
1.272,   8.037e-5
1.274,   8.028e-5
1.276,   8.018e-5
1.278,   7.993e-5
1.280,   8.039e-5
1.282,   8.037e-5
1.284,   8.012e-5
1.286,   7.988e-5
1.288,   8.025e-5
1.290,   8.028e-5
1.292,   8.018e-5
1.294,   8.006e-5
1.296,   8.047e-5
1.298,   8.043e-5
1.300,   8.023e-5
1.302,   8.030e-5
1.304,   8.066e-5
1.306,   8.077e-5
1.308,   8.066e-5
1.310,   8.064e-5
1.312,   8.099e-5
1.314,   8.117e-5
1.316,   8.106e-5
1.318,   8.114e-5
1.320,   8.159e-5
1.322,   8.179e-5
1.324,   8.171e-5
1.326,   8.182e-5
1.328,   8.248e-5
1.330,   8.262e-5
1.332,   8.268e-5
1.334,   8.308e-5
1.336,   8.352e-5
1.338,   8.379e-5
1.340,   8.409e-5
1.342,   8.437e-5
1.344,   8.508e-5
1.346,   8.557e-5
1.348,   8.575e-5
1.350,   8.624e-5
1.352,   8.723e-5
1.354,   8.788e-5
1.356,   8.827e-5
1.358,   8.897e-5
1.360,   9.019e-5
1.362,   9.111e-5
1.364,   9.199e-5
1.366,   9.331e-5
1.368,   9.476e-5
1.370,   9.642e-5
1.372,   9.806e-5
1.374,   9.987e-5
1.376,   1.025e-4
1.378,   1.053e-4
1.380,   1.084e-4
1.382,   1.116e-4
1.384,   1.162e-4
1.386,   1.211e-4
1.388,   1.266e-4
1.390,   1.331e-4
1.392,   1.412e-4
1.394,   1.499e-4
1.396,   1.599e-4
1.398,   1.717e-4
1.400,   1.855e-4
1.402,   2.013e-4
1.404,   2.192e-4
1.406,   2.396e-4
1.408,   2.635e-4
1.410,   2.904e-4
1.412,   3.206e-4
1.414,   3.549e-4
1.416,   3.941e-4
1.418,   4.381e-4
1.420,   4.867e-4
1.422,   5.413e-4
1.424,   6.022e-4
1.426,   6.694e-4
1.428,   7.438e-4
1.430,   8.267e-4
1.432,   9.167e-4
1.434,   1.014e-3
1.436,   1.119e-3
1.438,   1.233e-3
1.440,   1.357e-3
1.442,   1.487e-3
1.444,   1.626e-3
1.446,   1.783e-3
1.448,   1.940e-3
1.450,   2.119e-3
1.452,   2.311e-3
1.454,   2.500e-3
1.456,   2.715e-3
1.458,   2.934e-3
1.460,   3.181e-3
1.462,   3.448e-3
1.464,   3.719e-3
1.466,   3.995e-3
1.468,   4.276e-3
1.470,   4.675e-3
1.472,   5.041e-3
1.474,   5.441e-3
1.476,   5.718e-3
1.478,   5.993e-3
1.480,   6.303e-3
1.482,   6.558e-3
1.484,   7.210e-3
1.486,   7.779e-3
1.488,   8.274e-3
1.490,   8.482e-3
1.492,   9.054e-3
1.494,   1.007e-2
1.496,   1.007e-2
1.498,   1.007e-2
1.500,   1.007e-2
1.502,   1.007e-2

File: B3_BEST_500_#8_Full-275mV.txt
Feb. 22, 2023   13:48:28
Linear Sweep Voltammetry
File: d:\current work\al_oer\electrochemical test data\batch 3\500\B3_BEST_500_#8_Full-275mV.txt
Data Source:  Experiment
Instrument Model:  CHI660E
Header:
Note:

Init E (V) = 1.099

Final E (V) = 1.717

Scan Rate (V/s) = 0.010
Sample Interval (V) = 0.001
Quiet Time (sec) = 2
Sensitivity (A/V) = 0.001
Comp R (ohm) = 5.0

Results:

Channel 1:

Potential/V, Current/A
1.099,   5.066e-4
1.102,   4.048e-4
1.105,   3.337e-4
1.108,   2.821e-4
1.111,   2.442e-4
1.114,   2.149e-4
1.117,   1.917e-4
1.120,   1.737e-4
1.123,   1.587e-4
1.126,   1.465e-4
1.129,   1.361e-4
1.132,   1.276e-4
1.135,   1.203e-4
1.138,   1.140e-4
1.141,   1.086e-4
1.144,   1.041e-4
1.147,   1.003e-4
1.150,   9.694e-5
1.153,   9.376e-5
1.156,   9.120e-5
1.159,   8.875e-5
1.162,   8.661e-5
1.165,   8.465e-5
1.168,   8.298e-5
1.171,   8.159e-5
1.174,   8.029e-5
1.177,   7.914e-5
1.180,   7.811e-5
1.183,   7.716e-5
1.186,   7.640e-5
1.189,   7.551e-5
1.192,   7.494e-5
1.195,   7.419e-5
1.198,   7.361e-5
1.201,   7.308e-5
1.204,   7.268e-5
1.207,   7.254e-5
1.210,   7.213e-5
1.213,   7.166e-5
1.216,   7.134e-5
1.219,   7.099e-5
1.222,   7.080e-5
1.225,   7.048e-5
1.228,   7.021e-5
1.231,   7.009e-5
1.234,   6.989e-5
1.237,   6.972e-5
1.240,   6.962e-5
1.243,   6.943e-5
1.246,   6.935e-5
1.249,   6.936e-5
1.252,   6.919e-5
1.255,   6.901e-5
1.258,   6.899e-5
1.261,   6.898e-5
1.264,   6.888e-5
1.267,   6.884e-5
1.270,   6.883e-5
1.273,   6.880e-5
1.276,   6.869e-5
1.279,   6.872e-5
1.282,   6.878e-5
1.285,   6.869e-5
1.288,   6.860e-5
1.291,   6.859e-5
1.294,   6.869e-5
1.297,   6.882e-5
1.300,   6.891e-5
1.303,   6.893e-5
1.306,   6.904e-5
1.309,   6.910e-5
1.312,   6.923e-5
1.315,   6.933e-5
1.318,   6.957e-5
1.321,   6.973e-5
1.324,   7.002e-5
1.327,   7.032e-5
1.330,   7.056e-5
1.333,   7.084e-5
1.336,   7.115e-5
1.339,   7.165e-5
1.342,   7.200e-5
1.345,   7.254e-5
1.348,   7.307e-5
1.351,   7.370e-5
1.354,   7.450e-5
1.357,   7.526e-5
1.360,   7.607e-5
1.363,   7.721e-5
1.366,   7.835e-5
1.369,   7.959e-5
1.372,   8.111e-5
1.375,   8.292e-5
1.378,   8.511e-5
1.381,   8.751e-5
1.384,   9.036e-5
1.387,   9.385e-5
1.390,   9.785e-5
1.393,   1.026e-4
1.396,   1.082e-4
1.399,   1.148e-4
1.402,   1.224e-4
1.405,   1.314e-4
1.408,   1.414e-4
1.411,   1.529e-4
1.414,   1.663e-4
1.417,   1.808e-4
1.420,   1.973e-4
1.423,   2.156e-4
1.426,   2.362e-4
1.429,   2.586e-4
1.432,   2.837e-4
1.435,   3.110e-4
1.438,   3.405e-4
1.441,   3.729e-4
1.444,   4.100e-4
1.447,   4.475e-4
1.450,   4.900e-4
1.453,   5.343e-4
1.456,   5.835e-4
1.459,   6.356e-4
1.462,   6.916e-4
1.465,   7.516e-4
1.468,   8.159e-4
1.471,   8.843e-4
1.474,   9.567e-4
1.477,   1.032e-3
1.480,   1.113e-3
1.483,   1.197e-3
1.486,   1.286e-3
1.489,   1.379e-3
1.492,   1.476e-3
1.495,   1.575e-3
1.498,   1.680e-3
1.501,   1.783e-3
1.504,   1.893e-3
1.507,   2.006e-3
1.510,   2.122e-3
1.513,   2.241e-3
1.516,   2.360e-3
1.519,   2.488e-3
1.522,   2.610e-3
1.525,   2.736e-3
1.528,   2.861e-3
1.531,   2.989e-3
1.534,   3.108e-3
1.537,   3.238e-3
1.540,   3.368e-3
1.543,   3.490e-3
1.546,   3.613e-3
1.549,   3.735e-3
1.552,   3.853e-3
1.555,   3.971e-3
1.558,   4.082e-3
1.561,   4.199e-3
1.564,   4.308e-3
1.567,   4.416e-3
1.570,   4.530e-3
1.573,   4.765e-3
1.576,   4.878e-3
1.579,   4.967e-3
1.582,   5.059e-3
1.585,   5.156e-3
1.588,   5.266e-3
1.591,   5.350e-3
1.594,   5.433e-3
1.597,   5.546e-3
1.600,   5.675e-3
1.603,   5.755e-3
1.606,   5.818e-3
1.609,   5.908e-3
1.612,   5.974e-3
1.615,   6.035e-3
1.618,   6.108e-3
1.621,   6.171e-3
1.624,   6.224e-3
1.627,   6.255e-3
1.630,   6.298e-3
1.633,   6.351e-3
1.636,   6.384e-3
1.639,   6.410e-3
1.642,   6.760e-3
1.645,   6.759e-3
1.648,   6.762e-3
1.651,   6.768e-3
1.654,   6.780e-3
1.657,   6.776e-3
1.660,   6.795e-3
1.663,   6.816e-3
1.666,   6.816e-3
1.669,   6.932e-3
1.672,   6.925e-3
1.675,   7.155e-3
1.678,   7.293e-3
1.681,   7.230e-3
1.684,   7.173e-3
1.687,   7.200e-3
1.690,   7.201e-3
1.693,   7.148e-3
1.696,   7.228e-3
1.699,   7.174e-3
1.702,   7.106e-3
1.705,   7.066e-3
1.708,   7.014e-3
1.711,   6.983e-3
1.714,   7.121e-3
1.717,   7.061e-3

File: B3_VARIANCE_500_#1_High_Quality(#22)-174mV.txt
Feb. 24, 2023   14:22:45
Linear Sweep Voltammetry
File: d:\current work\al_oer\electrochemical test data\batch 3\500\B3_VARIANCE_500_#1_High_Quality(#22)-174mV.txt
Data Source:  Experiment
Instrument Model:  CHI660E
Header:
Note:

Init E (V) = 1.100

Final E (V) = 1.466

Scan Rate (V/s) = 0.010
Sample Interval (V) = 0.001
Quiet Time (sec) = 2
Sensitivity (A/V) = 0.001
Comp R (ohm) = 4.8

Results:

Channel 1:

Potential/V, Current/A
1.100,   1.007e-2
1.102,   1.007e-2
1.104,   6.655e-3
1.106,   2.430e-3
1.108,   1.470e-3
1.110,   1.055e-3
1.112,   8.349e-4
1.114,   7.052e-4
1.116,   6.227e-4
1.118,   5.692e-4
1.120,   5.292e-4
1.122,   5.006e-4
1.124,   4.781e-4
1.126,   4.616e-4
1.128,   4.492e-4
1.130,   4.373e-4
1.132,   4.275e-4
1.134,   4.210e-4
1.136,   4.147e-4
1.138,   4.092e-4
1.140,   4.048e-4
1.142,   4.014e-4
1.144,   3.979e-4
1.146,   3.955e-4
1.148,   3.921e-4
1.150,   3.906e-4
1.152,   3.892e-4
1.154,   3.874e-4
1.156,   3.856e-4
1.158,   3.853e-4
1.160,   3.850e-4
1.162,   3.833e-4
1.164,   3.828e-4
1.166,   3.835e-4
1.168,   3.833e-4
1.170,   3.821e-4
1.172,   3.828e-4
1.174,   3.828e-4
1.176,   3.828e-4
1.178,   3.829e-4
1.180,   3.819e-4
1.182,   3.835e-4
1.184,   3.841e-4
1.186,   3.839e-4
1.188,   3.839e-4
1.190,   3.852e-4
1.192,   3.858e-4
1.194,   3.857e-4
1.196,   3.859e-4
1.198,   3.877e-4
1.200,   3.879e-4
1.202,   3.876e-4
1.204,   3.882e-4
1.206,   3.895e-4
1.208,   3.903e-4
1.210,   3.908e-4
1.212,   3.912e-4
1.214,   3.922e-4
1.216,   3.936e-4
1.218,   3.935e-4
1.220,   3.937e-4
1.222,   3.960e-4
1.224,   3.969e-4
1.226,   3.973e-4
1.228,   3.972e-4
1.230,   3.990e-4
1.232,   3.998e-4
1.234,   3.999e-4
1.236,   4.012e-4
1.238,   4.027e-4
1.240,   4.033e-4
1.242,   4.038e-4
1.244,   4.038e-4
1.246,   4.062e-4
1.248,   4.071e-4
1.250,   4.073e-4
1.252,   4.077e-4
1.254,   4.099e-4
1.256,   4.109e-4
1.258,   4.111e-4
1.260,   4.114e-4
1.262,   4.137e-4
1.264,   4.148e-4
1.266,   4.149e-4
1.268,   4.154e-4
1.270,   4.177e-4
1.272,   4.188e-4
1.274,   4.196e-4
1.276,   4.201e-4
1.278,   4.216e-4
1.280,   4.236e-4
1.282,   4.237e-4
1.284,   4.242e-4
1.286,   4.259e-4
1.288,   4.276e-4
1.290,   4.281e-4
1.292,   4.288e-4
1.294,   4.315e-4
1.296,   4.321e-4
1.298,   4.330e-4
1.300,   4.345e-4
1.302,   4.360e-4
1.304,   4.379e-4
1.306,   4.385e-4
1.308,   4.394e-4
1.310,   4.417e-4
1.312,   4.437e-4
1.314,   4.449e-4
1.316,   4.459e-4
1.318,   4.482e-4
1.320,   4.505e-4
1.322,   4.519e-4
1.324,   4.538e-4
1.326,   4.583e-4
1.328,   4.603e-4
1.330,   4.622e-4
1.332,   4.642e-4
1.334,   4.689e-4
1.336,   4.730e-4
1.338,   4.774e-4
1.340,   4.806e-4
1.342,   4.863e-4
1.344,   4.917e-4
1.346,   4.976e-4
1.348,   5.043e-4
1.350,   5.128e-4
1.352,   5.223e-4
1.354,   5.312e-4
1.356,   5.414e-4
1.358,   5.547e-4
1.360,   5.683e-4
1.362,   5.831e-4
1.364,   6.011e-4
1.366,   6.203e-4
1.368,   6.427e-4
1.370,   6.665e-4
1.372,   6.936e-4
1.374,   7.251e-4
1.376,   7.595e-4
1.378,   7.970e-4
1.380,   8.387e-4
1.382,   8.866e-4
1.384,   9.396e-4
1.386,   9.972e-4
1.388,   1.060e-3
1.390,   1.134e-3
1.392,   1.211e-3
1.394,   1.297e-3
1.396,   1.390e-3
1.398,   1.494e-3
1.400,   1.607e-3
1.402,   1.729e-3
1.404,   1.865e-3
1.406,   2.015e-3
1.408,   2.181e-3
1.410,   2.357e-3
1.412,   2.550e-3
1.414,   2.766e-3
1.416,   2.994e-3
1.418,   3.245e-3
1.420,   3.521e-3
1.422,   3.822e-3
1.424,   4.135e-3
1.426,   4.501e-3
1.428,   4.879e-3
1.430,   5.290e-3
1.432,   5.722e-3
1.434,   6.200e-3
1.436,   6.650e-3
1.438,   7.150e-3
1.440,   7.747e-3
1.442,   8.293e-3
1.444,   9.013e-3
1.446,   9.627e-3
1.448,   1.007e-2
1.450,   1.007e-2
1.452,   1.007e-2
1.454,   1.007e-2
1.456,   1.007e-2
1.458,   1.007e-2
1.460,   1.007e-2
1.462,   1.007e-2
1.464,   1.007e-2
1.466,   1.007e-2

File: B3_VARIANCE_500_#2_Full(#10)-349mV.txt
Feb. 22, 2023   14:21:41
Linear Sweep Voltammetry
File: d:\current work\al_oer\electrochemical test data\batch 3\500\B3_VARIANCE_500_#2_Full(#10)-349mV.txt
Data Source:  Experiment
Instrument Model:  CHI660E
Header:
Note:

Init E (V) = 1.100

Final E (V) = 1.799

Scan Rate (V/s) = 0.010
Sample Interval (V) = 0.001
Quiet Time (sec) = 2
Sensitivity (A/V) = 0.001
Comp R (ohm) = 5.6

Results:

Channel 1:
Ep = 1.487V
ip = 7.388e-3A
Ah = 1.160e-1C

Potential/V, Current/A
1.100,   3.513e-5
1.103,   3.034e-5
1.106,   2.644e-5
1.109,   2.360e-5
1.112,   2.137e-5
1.115,   1.965e-5
1.118,   1.823e-5
1.121,   1.713e-5
1.124,   1.623e-5
1.127,   1.543e-5
1.130,   1.481e-5
1.133,   1.425e-5
1.136,   1.379e-5
1.139,   1.341e-5
1.142,   1.301e-5
1.145,   1.276e-5
1.148,   1.251e-5
1.151,   1.228e-5
1.154,   1.212e-5
1.157,   1.196e-5
1.160,   1.184e-5
1.163,   1.172e-5
1.166,   1.165e-5
1.169,   1.158e-5
1.172,   1.152e-5
1.175,   1.149e-5
1.178,   1.148e-5
1.181,   1.144e-5
1.184,   1.145e-5
1.187,   1.145e-5
1.190,   1.145e-5
1.193,   1.149e-5
1.196,   1.152e-5
1.199,   1.154e-5
1.202,   1.158e-5
1.205,   1.163e-5
1.208,   1.169e-5
1.211,   1.177e-5
1.214,   1.183e-5
1.217,   1.188e-5
1.220,   1.193e-5
1.223,   1.202e-5
1.226,   1.211e-5
1.229,   1.216e-5
1.232,   1.226e-5
1.235,   1.231e-5
1.238,   1.235e-5
1.241,   1.242e-5
1.244,   1.250e-5
1.247,   1.260e-5
1.250,   1.266e-5
1.253,   1.273e-5
1.256,   1.283e-5
1.259,   1.290e-5
1.262,   1.299e-5
1.265,   1.306e-5
1.268,   1.313e-5
1.271,   1.324e-5
1.274,   1.333e-5
1.277,   1.342e-5
1.280,   1.351e-5
1.283,   1.360e-5
1.286,   1.370e-5
1.289,   1.379e-5
1.292,   1.386e-5
1.295,   1.398e-5
1.298,   1.410e-5
1.301,   1.422e-5
1.304,   1.433e-5
1.307,   1.446e-5
1.310,   1.458e-5
1.313,   1.472e-5
1.316,   1.487e-5
1.319,   1.497e-5
1.322,   1.512e-5
1.325,   1.530e-5
1.328,   1.544e-5
1.331,   1.559e-5
1.334,   1.574e-5
1.337,   1.589e-5
1.340,   1.608e-5
1.343,   1.624e-5
1.346,   1.645e-5
1.349,   1.667e-5
1.352,   1.682e-5
1.355,   1.701e-5
1.358,   1.719e-5
1.361,   1.738e-5
1.364,   1.761e-5
1.367,   1.783e-5
1.370,   1.803e-5
1.373,   1.830e-5
1.376,   1.857e-5
1.379,   1.886e-5
1.382,   1.912e-5
1.385,   1.941e-5
1.388,   1.983e-5
1.391,   2.027e-5
1.394,   2.082e-5
1.397,   2.114e-5
1.400,   2.163e-5
1.403,   2.209e-5
1.406,   2.270e-5
1.409,   2.338e-5
1.412,   2.421e-5
1.415,   2.514e-5
1.418,   2.622e-5
1.421,   2.741e-5
1.424,   2.880e-5
1.427,   3.036e-5
1.430,   3.218e-5
1.433,   3.421e-5
1.436,   3.652e-5
1.439,   3.904e-5
1.442,   4.207e-5
1.445,   4.549e-5
1.448,   4.940e-5
1.451,   5.387e-5
1.454,   5.901e-5
1.457,   6.486e-5
1.460,   7.148e-5
1.463,   7.917e-5
1.466,   8.765e-5
1.469,   9.716e-5
1.472,   1.080e-4
1.475,   1.203e-4
1.478,   1.339e-4
1.481,   1.492e-4
1.484,   1.660e-4
1.487,   1.859e-4
1.490,   2.054e-4
1.493,   2.279e-4
1.496,   2.526e-4
1.499,   2.792e-4
1.502,   3.079e-4
1.505,   3.390e-4
1.508,   3.720e-4
1.511,   4.072e-4
1.514,   4.451e-4
1.517,   4.849e-4
1.520,   5.269e-4
1.523,   5.717e-4
1.526,   6.179e-4
1.529,   6.667e-4
1.532,   7.182e-4
1.535,   7.714e-4
1.538,   8.278e-4
1.541,   8.860e-4
1.544,   9.467e-4
1.547,   1.011e-3
1.550,   1.080e-3
1.553,   1.150e-3
1.556,   1.226e-3
1.559,   1.300e-3
1.562,   1.376e-3
1.565,   1.461e-3
1.568,   1.547e-3
1.571,   1.636e-3
1.574,   1.735e-3
1.577,   1.836e-3
1.580,   1.950e-3
1.583,   2.067e-3
1.586,   2.174e-3
1.589,   2.289e-3
1.592,   2.417e-3
1.595,   2.549e-3
1.598,   2.695e-3
1.601,   2.869e-3
1.604,   3.016e-3
1.607,   3.167e-3
1.610,   3.353e-3
1.613,   3.527e-3
1.616,   3.732e-3
1.619,   3.905e-3
1.622,   4.089e-3
1.625,   4.343e-3
1.628,   4.575e-3
1.631,   4.846e-3
1.634,   5.042e-3
1.637,   5.229e-3
1.640,   5.576e-3
1.643,   5.747e-3
1.646,   5.962e-3
1.649,   6.341e-3
1.652,   6.556e-3
1.655,   6.656e-3
1.658,   6.900e-3
1.661,   7.143e-3
1.664,   7.278e-3
1.667,   7.271e-3
1.670,   7.433e-3
1.673,   7.382e-3
1.676,   7.507e-3
1.679,   7.566e-3
1.682,   7.551e-3
1.685,   7.408e-3
1.688,   7.489e-3
1.691,   7.553e-3
1.694,   7.453e-3
1.697,   7.481e-3
1.700,   7.386e-3
1.703,   7.278e-3
1.706,   7.227e-3
1.709,   7.119e-3
1.712,   6.991e-3
1.715,   7.028e-3
1.718,   6.893e-3
1.721,   6.776e-3
1.724,   6.623e-3
1.727,   6.546e-3
1.730,   6.428e-3
1.733,   6.180e-3
1.736,   6.072e-3
1.739,   6.017e-3
1.742,   5.874e-3
1.745,   5.706e-3
1.748,   5.556e-3
1.751,   5.405e-3
1.754,   5.271e-3
1.757,   5.131e-3
1.760,   5.143e-3
1.763,   4.953e-3
1.766,   4.781e-3
1.769,   4.726e-3
1.772,   4.525e-3
1.775,   4.377e-3
1.778,   4.277e-3
1.781,   4.137e-3
1.784,   4.000e-3
1.787,   3.914e-3
1.790,   3.783e-3
1.793,   3.661e-3
1.796,   3.545e-3
1.799,   3.475e-3