Folder: DASH/Experimental Records, Raw Data, and Supplementary Notes and Figures/batch4/final500 (part 2)

File: B4_BEST_500_#8_High_Quality(#24)-189mV.txt
Mar. 29, 2023   11:57:03
Linear Sweep Voltammetry
File: d:\current work\al_oer\electrochemical test data\batch 4\500\B4_BEST_500_#8_High_Quality(#24)-189mV.txt
Data Source:  Experiment
Instrument Model:  CHI660E
Header:
Note:

Init E (V) = 1.097

Final E (V) = 1.479

Scan Rate (V/s) = 0.010
Sample Interval (V) = 0.001
Quiet Time (sec) = 2
Sensitivity (A/V) = 0.001
Comp R (ohm) = 5.5

Results:

Channel 1:

Potential/V, Current/A
1.097,   1.282e-4
1.099,   1.511e-4
1.101,   1.407e-4
1.103,   1.325e-4
1.105,   1.266e-4
1.107,   1.218e-4
1.109,   1.181e-4
1.111,   1.150e-4
1.113,   1.124e-4
1.115,   1.109e-4
1.117,   1.093e-4
1.119,   1.078e-4
1.121,   1.067e-4
1.123,   1.062e-4
1.125,   1.055e-4
1.127,   1.048e-4
1.129,   1.044e-4
1.131,   1.045e-4
1.133,   1.042e-4
1.135,   1.038e-4
1.137,   1.038e-4
1.139,   1.040e-4
1.141,   1.042e-4
1.143,   1.043e-4
1.145,   1.043e-4
1.147,   1.049e-4
1.149,   1.051e-4
1.151,   1.052e-4
1.153,   1.053e-4
1.155,   1.061e-4
1.157,   1.067e-4
1.159,   1.066e-4
1.161,   1.072e-4
1.163,   1.079e-4
1.165,   1.085e-4
1.167,   1.088e-4
1.169,   1.095e-4
1.171,   1.102e-4
1.173,   1.106e-4
1.175,   1.111e-4
1.177,   1.115e-4
1.179,   1.125e-4
1.181,   1.133e-4
1.183,   1.136e-4
1.185,   1.143e-4
1.187,   1.153e-4
1.189,   1.160e-4
1.191,   1.165e-4
1.193,   1.173e-4
1.195,   1.185e-4
1.197,   1.190e-4
1.199,   1.194e-4
1.201,   1.204e-4
1.203,   1.214e-4
1.205,   1.223e-4
1.207,   1.230e-4
1.209,   1.233e-4
1.211,   1.250e-4
1.213,   1.255e-4
1.215,   1.261e-4
1.217,   1.271e-4
1.219,   1.281e-4
1.221,   1.291e-4
1.223,   1.297e-4
1.225,   1.305e-4
1.227,   1.317e-4
1.229,   1.327e-4
1.231,   1.332e-4
1.233,   1.345e-4
1.235,   1.352e-4
1.237,   1.361e-4
1.239,   1.368e-4
1.241,   1.374e-4
1.243,   1.386e-4
1.245,   1.397e-4
1.247,   1.401e-4
1.249,   1.411e-4
1.251,   1.419e-4
1.253,   1.430e-4
1.255,   1.434e-4
1.257,   1.443e-4
1.259,   1.458e-4
1.261,   1.464e-4
1.263,   1.471e-4
1.265,   1.478e-4
1.267,   1.492e-4
1.269,   1.500e-4
1.271,   1.510e-4
1.273,   1.516e-4
1.275,   1.531e-4
1.277,   1.541e-4
1.279,   1.549e-4
1.281,   1.558e-4
1.283,   1.572e-4
1.285,   1.584e-4
1.287,   1.592e-4
1.289,   1.603e-4
1.291,   1.623e-4
1.293,   1.634e-4
1.295,   1.642e-4
1.297,   1.659e-4
1.299,   1.674e-4
1.301,   1.691e-4
1.303,   1.704e-4
1.305,   1.717e-4
1.307,   1.738e-4
1.309,   1.758e-4
1.311,   1.772e-4
1.313,   1.788e-4
1.315,   1.812e-4
1.317,   1.834e-4
1.319,   1.852e-4
1.321,   1.873e-4
1.323,   1.910e-4
1.325,   1.928e-4
1.327,   1.951e-4
1.329,   1.980e-4
1.331,   2.012e-4
1.333,   2.043e-4
1.335,   2.078e-4
1.337,   2.106e-4
1.339,   2.152e-4
1.341,   2.193e-4
1.343,   2.233e-4
1.345,   2.278e-4
1.347,   2.331e-4
1.349,   2.386e-4
1.351,   2.439e-4
1.353,   2.500e-4
1.355,   2.570e-4
1.357,   2.639e-4
1.359,   2.710e-4
1.361,   2.798e-4
1.363,   2.884e-4
1.365,   2.981e-4
1.367,   3.083e-4
1.369,   3.197e-4
1.371,   3.326e-4
1.373,   3.465e-4
1.375,   3.611e-4
1.377,   3.781e-4
1.379,   3.975e-4
1.381,   4.187e-4
1.383,   4.421e-4
1.385,   4.687e-4
1.387,   5.001e-4
1.389,   5.337e-4
1.391,   5.726e-4
1.393,   6.169e-4
1.395,   6.675e-4
1.397,   7.242e-4
1.399,   7.890e-4
1.401,   8.612e-4
1.403,   9.395e-4
1.405,   1.027e-3
1.407,   1.125e-3
1.409,   1.232e-3
1.411,   1.340e-3
1.413,   1.466e-3
1.415,   1.604e-3
1.417,   1.753e-3
1.419,   1.914e-3
1.421,   2.089e-3
1.423,   2.265e-3
1.425,   2.457e-3
1.427,   2.657e-3
1.429,   2.876e-3
1.431,   3.091e-3
1.433,   3.303e-3
1.435,   3.529e-3
1.437,   3.739e-3
1.439,   3.979e-3
1.441,   4.195e-3
1.443,   4.420e-3
1.445,   4.659e-3
1.447,   4.893e-3
1.449,   5.145e-3
1.451,   5.411e-3
1.453,   5.656e-3
1.455,   5.929e-3
1.457,   6.199e-3
1.459,   6.559e-3
1.461,   6.898e-3
1.463,   7.164e-3
1.465,   7.571e-3
1.467,   7.901e-3
1.469,   8.227e-3
1.471,   8.581e-3
1.473,   8.874e-3
1.475,   9.593e-3
1.477,   9.870e-3
1.479,   1.006e-2

File: B4_VARIANCE_500_#1_Full(#9)-307mV.txt
Mar. 29, 2023   12:39:07
Linear Sweep Voltammetry
File: d:\current work\al_oer\electrochemical test data\batch 4\500\B4_VARIANCE_500_#1_Full(#9)-307mV.txt
Data Source:  Experiment
Instrument Model:  CHI660E
Header:
Note:

Init E (V) = 1.095

Final E (V) = 1.545

Scan Rate (V/s) = 0.010
Sample Interval (V) = 0.001
Quiet Time (sec) = 2
Sensitivity (A/V) = 0.001
Comp R (ohm) = 5.2

Results:

Channel 1:

Potential/V, Current/A
1.095,   3.501e-5
1.097,   3.272e-5
1.099,   2.940e-5
1.101,   2.674e-5
1.103,   2.464e-5
1.105,   2.288e-5
1.107,   2.140e-5
1.109,   2.022e-5
1.111,   1.914e-5
1.113,   1.831e-5
1.115,   1.757e-5
1.117,   1.688e-5
1.119,   1.632e-5
1.121,   1.586e-5
1.123,   1.540e-5
1.125,   1.504e-5
1.127,   1.468e-5
1.129,   1.442e-5
1.131,   1.415e-5
1.133,   1.386e-5
1.135,   1.369e-5
1.137,   1.352e-5
1.139,   1.336e-5
1.141,   1.324e-5
1.143,   1.306e-5
1.145,   1.299e-5
1.147,   1.288e-5
1.149,   1.277e-5
1.151,   1.270e-5
1.153,   1.266e-5
1.155,   1.261e-5
1.157,   1.258e-5
1.159,   1.250e-5
1.161,   1.253e-5
1.163,   1.247e-5
1.165,   1.243e-5
1.167,   1.246e-5
1.169,   1.248e-5
1.171,   1.242e-5
1.173,   1.245e-5
1.175,   1.245e-5
1.177,   1.253e-5
1.179,   1.254e-5
1.181,   1.252e-5
1.183,   1.256e-5
1.185,   1.263e-5
1.187,   1.262e-5
1.189,   1.266e-5
1.191,   1.272e-5
1.193,   1.277e-5
1.195,   1.279e-5
1.197,   1.284e-5
1.199,   1.293e-5
1.201,   1.298e-5
1.203,   1.302e-5
1.205,   1.309e-5
1.207,   1.315e-5
1.209,   1.325e-5
1.211,   1.331e-5
1.213,   1.338e-5
1.215,   1.345e-5
1.217,   1.357e-5
1.219,   1.366e-5
1.221,   1.374e-5
1.223,   1.379e-5
1.225,   1.394e-5
1.227,   1.404e-5
1.229,   1.412e-5
1.231,   1.429e-5
1.233,   1.439e-5
1.235,   1.453e-5
1.237,   1.465e-5
1.239,   1.476e-5
1.241,   1.494e-5
1.243,   1.510e-5
1.245,   1.524e-5
1.247,   1.542e-5
1.249,   1.561e-5
1.251,   1.579e-5
1.253,   1.598e-5
1.255,   1.615e-5
1.257,   1.640e-5
1.259,   1.658e-5
1.261,   1.676e-5
1.263,   1.700e-5
1.265,   1.724e-5
1.267,   1.749e-5
1.269,   1.773e-5
1.271,   1.797e-5
1.273,   1.826e-5
1.275,   1.852e-5
1.277,   1.876e-5
1.279,   1.905e-5
1.281,   1.934e-5
1.283,   1.964e-5
1.285,   1.994e-5
1.287,   2.022e-5
1.289,   2.057e-5
1.291,   2.088e-5
1.293,   2.114e-5
1.295,   2.148e-5
1.297,   2.180e-5
1.299,   2.213e-5
1.301,   2.248e-5
1.303,   2.278e-5
1.305,   2.316e-5
1.307,   2.348e-5
1.309,   2.377e-5
1.311,   2.417e-5
1.313,   2.451e-5
1.315,   2.488e-5
1.317,   2.520e-5
1.319,   2.558e-5
1.321,   2.598e-5
1.323,   2.631e-5
1.325,   2.665e-5
1.327,   2.699e-5
1.329,   2.736e-5
1.331,   2.774e-5
1.333,   2.813e-5
1.335,   2.846e-5
1.337,   2.883e-5
1.339,   2.923e-5
1.341,   2.957e-5
1.343,   2.994e-5
1.345,   3.032e-5
1.347,   3.074e-5
1.349,   3.109e-5
1.351,   3.147e-5
1.353,   3.184e-5
1.355,   3.221e-5
1.357,   3.261e-5
1.359,   3.303e-5
1.361,   3.344e-5
1.363,   3.388e-5
1.365,   3.434e-5
1.367,   3.470e-5
1.369,   3.526e-5
1.371,   3.565e-5
1.373,   3.612e-5
1.375,   3.663e-5
1.377,   3.718e-5
1.379,   3.764e-5
1.381,   3.813e-5
1.383,   3.880e-5
1.385,   3.950e-5
1.387,   4.015e-5
1.389,   4.093e-5
1.391,   4.180e-5
1.393,   4.276e-5
1.395,   4.367e-5
1.397,   4.488e-5
1.399,   4.603e-5
1.401,   4.747e-5
1.403,   4.898e-5
1.405,   5.057e-5
1.407,   5.246e-5
1.409,   5.450e-5
1.411,   5.678e-5
1.413,   5.924e-5
1.415,   6.208e-5
1.417,   6.519e-5
1.419,   6.852e-5
1.421,   7.226e-5
1.423,   7.657e-5
1.425,   8.129e-5
1.427,   8.621e-5
1.429,   9.183e-5
1.431,   9.788e-5
1.433,   1.046e-4
1.435,   1.119e-4
1.437,   1.200e-4
1.439,   1.287e-4
1.441,   1.383e-4
1.443,   1.488e-4
1.445,   1.601e-4
1.447,   1.724e-4
1.449,   1.858e-4
1.451,   2.000e-4
1.453,   2.155e-4
1.455,   2.321e-4
1.457,   2.501e-4
1.459,   2.693e-4
1.461,   2.898e-4
1.463,   3.118e-4
1.465,   3.351e-4
1.467,   3.596e-4
1.469,   3.858e-4
1.471,   4.134e-4
1.473,   4.425e-4
1.475,   4.733e-4
1.477,   5.058e-4
1.479,   5.391e-4
1.481,   5.740e-4
1.483,   6.100e-4
1.485,   6.473e-4
1.487,   6.857e-4
1.489,   7.252e-4
1.491,   7.647e-4
1.493,   8.059e-4
1.495,   8.479e-4
1.497,   8.902e-4
1.499,   9.335e-4
1.501,   9.785e-4
1.503,   1.023e-3
1.505,   1.070e-3
1.507,   1.118e-3
1.509,   1.168e-3
1.511,   1.215e-3
1.513,   1.266e-3
1.515,   1.320e-3
1.517,   1.371e-3
1.519,   1.423e-3
1.521,   1.476e-3
1.523,   1.531e-3
1.525,   1.587e-3
1.527,   1.644e-3
1.529,   1.701e-3
1.531,   1.762e-3
1.533,   1.820e-3
1.535,   1.877e-3
1.537,   1.948e-3
1.539,   2.004e-3
1.541,   2.073e-3
1.543,   2.132e-3
1.545,   2.201e-3

File: B4_VARIANCE_500_#1_High_Quality(#25)-246mV.txt
Mar. 29, 2023   12:11:54
Linear Sweep Voltammetry
File: d:\current work\al_oer\electrochemical test data\batch 4\500\B4_VARIANCE_500_#1_High_Quality(#25)-246mV.txt
Data Source:  Experiment
Instrument Model:  CHI660E
Header:
Note:

Init E (V) = 1.098

Final E (V) = 1.540

Scan Rate (V/s) = 0.010
Sample Interval (V) = 0.001
Quiet Time (sec) = 2
Sensitivity (A/V) = 0.001
Comp R (ohm) = 6.2

Results:

Channel 1:

Potential/V, Current/A
1.098,   1.159e-4
1.100,   1.127e-4
1.102,   1.024e-4
1.104,   9.371e-5
1.106,   8.741e-5
1.108,   8.196e-5
1.110,   7.738e-5
1.112,   7.352e-5
1.114,   7.022e-5
1.116,   6.736e-5
1.118,   6.560e-5
1.120,   6.323e-5
1.122,   6.135e-5
1.124,   5.993e-5
1.126,   5.853e-5
1.128,   5.701e-5
1.130,   5.592e-5
1.132,   5.521e-5
1.134,   5.440e-5
1.136,   5.330e-5
1.138,   5.266e-5
1.140,   5.203e-5
1.142,   5.182e-5
1.144,   5.119e-5
1.146,   5.059e-5
1.148,   5.007e-5
1.150,   4.996e-5
1.152,   4.952e-5
1.154,   4.929e-5
1.156,   4.915e-5
1.158,   4.895e-5
1.160,   4.869e-5
1.162,   4.846e-5
1.164,   4.855e-5
1.166,   4.820e-5
1.168,   4.818e-5
1.170,   4.816e-5
1.172,   4.804e-5
1.174,   4.802e-5
1.176,   4.792e-5
1.178,   4.784e-5
1.180,   4.774e-5
1.182,   4.781e-5
1.184,   4.770e-5
1.186,   4.755e-5
1.188,   4.763e-5
1.190,   4.746e-5
1.192,   4.768e-5
1.194,   4.755e-5
1.196,   4.767e-5
1.198,   4.741e-5
1.200,   4.749e-5
1.202,   4.737e-5
1.204,   4.731e-5
1.206,   4.746e-5
1.208,   4.735e-5
1.210,   4.713e-5
1.212,   4.696e-5
1.214,   4.741e-5
1.216,   4.711e-5
1.218,   4.693e-5
1.220,   4.700e-5
1.222,   4.686e-5
1.224,   4.667e-5
1.226,   4.675e-5
1.228,   4.671e-5
1.230,   4.661e-5
1.232,   4.656e-5
1.234,   4.656e-5
1.236,   4.640e-5
1.238,   4.621e-5
1.240,   4.626e-5
1.242,   4.617e-5
1.244,   4.610e-5
1.246,   4.604e-5
1.248,   4.605e-5
1.250,   4.584e-5
1.252,   4.574e-5
1.254,   4.593e-5
1.256,   4.565e-5
1.258,   4.549e-5
1.260,   4.560e-5
1.262,   4.546e-5
1.264,   4.526e-5
1.266,   4.544e-5
1.268,   4.550e-5
1.270,   4.532e-5
1.272,   4.530e-5
1.274,   4.516e-5
1.276,   4.530e-5
1.278,   4.531e-5
1.280,   4.512e-5
1.282,   4.530e-5
1.284,   4.534e-5
1.286,   4.523e-5
1.288,   4.527e-5
1.290,   4.519e-5
1.292,   4.540e-5
1.294,   4.543e-5
1.296,   4.532e-5
1.298,   4.552e-5
1.300,   4.558e-5
1.302,   4.571e-5
1.304,   4.566e-5
1.306,   4.591e-5
1.308,   4.586e-5
1.310,   4.641e-5
1.312,   4.620e-5
1.314,   4.633e-5
1.316,   4.660e-5
1.318,   4.683e-5
1.320,   4.685e-5
1.322,   4.704e-5
1.324,   4.755e-5
1.326,   4.757e-5
1.328,   4.781e-5
1.330,   4.800e-5
1.332,   4.831e-5
1.334,   4.853e-5
1.336,   4.887e-5
1.338,   4.934e-5
1.340,   4.960e-5
1.342,   5.006e-5
1.344,   5.023e-5
1.346,   5.035e-5
1.348,   5.129e-5
1.350,   5.158e-5
1.352,   5.192e-5
1.354,   5.239e-5
1.356,   5.312e-5
1.358,   5.365e-5
1.360,   5.403e-5
1.362,   5.466e-5
1.364,   5.589e-5
1.366,   5.622e-5
1.368,   5.694e-5
1.370,   5.758e-5
1.372,   5.864e-5
1.374,   5.952e-5
1.376,   6.078e-5
1.378,   6.172e-5
1.380,   6.246e-5
1.382,   6.472e-5
1.384,   6.681e-5
1.386,   6.784e-5
1.388,   6.853e-5
1.390,   7.047e-5
1.392,   7.264e-5
1.394,   7.524e-5
1.396,   7.829e-5
1.398,   8.154e-5
1.400,   8.531e-5
1.402,   8.915e-5
1.404,   9.398e-5
1.406,   9.921e-5
1.408,   1.050e-4
1.410,   1.117e-4
1.412,   1.193e-4
1.414,   1.279e-4
1.416,   1.372e-4
1.418,   1.477e-4
1.420,   1.600e-4
1.422,   1.733e-4
1.424,   1.879e-4
1.426,   2.042e-4
1.428,   2.236e-4
1.430,   2.443e-4
1.432,   2.673e-4
1.434,   2.956e-4
1.436,   3.221e-4
1.438,   3.536e-4
1.440,   3.883e-4
1.442,   4.267e-4
1.444,   4.689e-4
1.446,   5.180e-4
1.448,   5.676e-4
1.450,   6.238e-4
1.452,   6.847e-4
1.454,   7.528e-4
1.456,   8.219e-4
1.458,   8.995e-4
1.460,   9.848e-4
1.462,   1.073e-3
1.464,   1.167e-3
1.466,   1.265e-3
1.468,   1.377e-3
1.470,   1.499e-3
1.472,   1.630e-3
1.474,   1.768e-3
1.476,   1.917e-3
1.478,   2.064e-3
1.480,   2.236e-3
1.482,   2.418e-3
1.484,   2.599e-3
1.486,   2.779e-3
1.488,   2.960e-3
1.490,   3.180e-3
1.492,   3.409e-3
1.494,   3.645e-3
1.496,   3.891e-3
1.498,   4.123e-3
1.500,   4.376e-3
1.502,   4.642e-3
1.504,   4.902e-3
1.506,   5.184e-3
1.508,   5.552e-3
1.510,   5.891e-3
1.512,   6.140e-3
1.514,   6.484e-3
1.516,   6.829e-3
1.518,   7.187e-3
1.520,   7.675e-3
1.522,   7.907e-3
1.524,   8.315e-3
1.526,   8.651e-3
1.528,   9.103e-3
1.530,   9.547e-3
1.532,   1.003e-2
1.534,   1.006e-2
1.536,   1.006e-2
1.538,   1.006e-2
1.540,   1.006e-2

File: B4_VARIANCE_500_#2_Full(#10)-264mV.txt
Mar. 29, 2023   12:27:40
Linear Sweep Voltammetry
File: d:\current work\al_oer\electrochemical test data\batch 4\500\B4_VARIANCE_500_#2_Full(#10)-264mV.txt
Data Source:  Experiment
Instrument Model:  CHI660E
Header:
Note:

Init E (V) = 1.099

Final E (V) = 1.618

Scan Rate (V/s) = 0.010
Sample Interval (V) = 0.001
Quiet Time (sec) = 2
Sensitivity (A/V) = 0.001
Comp R (ohm) = 5.4

Results:

Channel 1:

Potential/V, Current/A
1.099,   4.819e-5
1.101,   4.562e-5
1.103,   4.131e-5
1.105,   3.800e-5
1.107,   3.544e-5
1.109,   3.323e-5
1.111,   3.147e-5
1.113,   3.000e-5
1.115,   2.876e-5
1.117,   2.777e-5
1.119,   2.687e-5
1.121,   2.613e-5
1.123,   2.551e-5
1.125,   2.501e-5
1.127,   2.456e-5
1.129,   2.415e-5
1.131,   2.379e-5
1.133,   2.356e-5
1.135,   2.325e-5
1.137,   2.302e-5
1.139,   2.286e-5
1.141,   2.276e-5
1.143,   2.262e-5
1.145,   2.254e-5
1.147,   2.244e-5
1.149,   2.241e-5
1.151,   2.236e-5
1.153,   2.230e-5
1.155,   2.231e-5
1.157,   2.235e-5
1.159,   2.239e-5
1.161,   2.237e-5
1.163,   2.239e-5
1.165,   2.254e-5
1.167,   2.258e-5
1.169,   2.260e-5
1.171,   2.275e-5
1.173,   2.283e-5
1.175,   2.289e-5
1.177,   2.297e-5
1.179,   2.303e-5
1.181,   2.323e-5
1.183,   2.335e-5
1.185,   2.342e-5
1.187,   2.357e-5
1.189,   2.372e-5
1.191,   2.384e-5
1.193,   2.394e-5
1.195,   2.410e-5
1.197,   2.429e-5
1.199,   2.443e-5
1.201,   2.451e-5
1.203,   2.471e-5
1.205,   2.495e-5
1.207,   2.506e-5
1.209,   2.524e-5
1.211,   2.534e-5
1.213,   2.557e-5
1.215,   2.576e-5
1.217,   2.590e-5
1.219,   2.607e-5
1.221,   2.632e-5
1.223,   2.655e-5
1.225,   2.670e-5
1.227,   2.685e-5
1.229,   2.718e-5
1.231,   2.729e-5
1.233,   2.750e-5
1.235,   2.781e-5
1.237,   2.799e-5
1.239,   2.818e-5
1.241,   2.842e-5
1.243,   2.860e-5
1.245,   2.892e-5
1.247,   2.913e-5
1.249,   2.939e-5
1.251,   2.962e-5
1.253,   2.991e-5
1.255,   3.018e-5
1.257,   3.042e-5
1.259,   3.066e-5
1.261,   3.103e-5
1.263,   3.124e-5
1.265,   3.151e-5
1.267,   3.188e-5
1.269,   3.219e-5
1.271,   3.249e-5
1.273,   3.281e-5
1.275,   3.309e-5
1.277,   3.347e-5
1.279,   3.382e-5
1.281,   3.417e-5
1.283,   3.453e-5
1.285,   3.495e-5
1.287,   3.536e-5
1.289,   3.569e-5
1.291,   3.607e-5
1.293,   3.656e-5
1.295,   3.695e-5
1.297,   3.738e-5
1.299,   3.779e-5
1.301,   3.821e-5
1.303,   3.867e-5
1.305,   3.917e-5
1.307,   3.970e-5
1.309,   4.026e-5
1.311,   4.082e-5
1.313,   4.135e-5
1.315,   4.197e-5
1.317,   4.263e-5
1.319,   4.325e-5
1.321,   4.385e-5
1.323,   4.456e-5
1.325,   4.541e-5
1.327,   4.618e-5
1.329,   4.691e-5
1.331,   4.783e-5
1.333,   4.873e-5
1.335,   4.961e-5
1.337,   5.066e-5
1.339,   5.167e-5
1.341,   5.290e-5
1.343,   5.410e-5
1.345,   5.530e-5
1.347,   5.663e-5
1.349,   5.812e-5
1.351,   5.968e-5
1.353,   6.138e-5
1.355,   6.307e-5
1.357,   6.512e-5
1.359,   6.713e-5
1.361,   6.926e-5
1.363,   7.161e-5
1.365,   7.412e-5
1.367,   7.681e-5
1.369,   7.963e-5
1.371,   8.257e-5
1.373,   8.586e-5
1.375,   8.928e-5
1.377,   9.281e-5
1.379,   9.665e-5
1.381,   1.008e-4
1.383,   1.052e-4
1.385,   1.099e-4
1.387,   1.149e-4
1.389,   1.203e-4
1.391,   1.260e-4
1.393,   1.320e-4
1.395,   1.383e-4
1.397,   1.449e-4
1.399,   1.518e-4
1.401,   1.591e-4
1.403,   1.665e-4
1.405,   1.742e-4
1.407,   1.821e-4
1.409,   1.904e-4
1.411,   1.989e-4
1.413,   2.080e-4
1.415,   2.177e-4
1.417,   2.280e-4
1.419,   2.393e-4
1.421,   2.516e-4
1.423,   2.652e-4
1.425,   2.803e-4
1.427,   2.971e-4
1.429,   3.162e-4
1.431,   3.373e-4
1.433,   3.604e-4
1.435,   3.861e-4
1.437,   4.146e-4
1.439,   4.455e-4
1.441,   4.792e-4
1.443,   5.151e-4
1.445,   5.535e-4
1.447,   5.942e-4
1.449,   6.368e-4
1.451,   6.808e-4
1.453,   7.256e-4
1.455,   7.706e-4
1.457,   8.149e-4
1.459,   8.589e-4
1.461,   9.038e-4
1.463,   9.497e-4
1.465,   9.967e-4
1.467,   1.047e-3
1.469,   1.100e-3
1.471,   1.154e-3
1.473,   1.212e-3
1.475,   1.273e-3
1.477,   1.335e-3
1.479,   1.400e-3
1.481,   1.466e-3
1.483,   1.535e-3
1.485,   1.602e-3
1.487,   1.676e-3
1.489,   1.742e-3
1.491,   1.813e-3
1.493,   1.896e-3
1.495,   1.976e-3
1.497,   2.053e-3
1.499,   2.134e-3
1.501,   2.223e-3
1.503,   2.306e-3
1.505,   2.397e-3
1.507,   2.481e-3
1.509,   2.562e-3
1.511,   2.661e-3
1.513,   2.761e-3
1.515,   2.862e-3
1.517,   2.959e-3
1.519,   3.060e-3
1.521,   3.165e-3
1.523,   3.264e-3
1.525,   3.357e-3
1.527,   3.502e-3
1.529,   3.603e-3
1.531,   3.667e-3
1.533,   3.784e-3
1.535,   3.873e-3
1.537,   3.997e-3
1.539,   4.056e-3
1.541,   4.181e-3
1.543,   4.228e-3
1.545,   4.290e-3
1.547,   4.375e-3
1.549,   4.446e-3
1.551,   4.523e-3
1.553,   4.709e-3
1.555,   4.788e-3
1.557,   4.816e-3
1.559,   4.836e-3
1.561,   4.899e-3
1.563,   4.911e-3
1.565,   4.960e-3
1.567,   5.036e-3
1.569,   5.067e-3
1.571,   5.165e-3
1.573,   5.195e-3
1.575,   5.240e-3
1.577,   5.312e-3
1.579,   5.340e-3
1.581,   5.409e-3
1.583,   5.531e-3
1.585,   5.527e-3
1.587,   5.543e-3
1.589,   5.590e-3
1.591,   5.672e-3
1.593,   5.709e-3
1.595,   5.752e-3
1.597,   5.812e-3
1.599,   5.844e-3
1.601,   5.906e-3
1.603,   6.002e-3
1.605,   6.006e-3
1.607,   6.046e-3
1.609,   6.121e-3
1.611,   6.150e-3
1.613,   6.325e-3
1.615,   6.458e-3
1.617,   6.435e-3
1.618,   6.448e-3

File: B4_VARIANCE_500_#2_High_Quality(#26)-230mV.txt
Mar. 29, 2023   11:44:08
Linear Sweep Voltammetry
File: d:\current work\al_oer\electrochemical test data\batch 4\500\B4_VARIANCE_500_#2_High_Quality(#26)-230mV.txt
Data Source:  Experiment
Instrument Model:  CHI660E
Header:
Note:

Init E (V) = 1.120

Final E (V) = 1.508

Scan Rate (V/s) = 0.010
Sample Interval (V) = 0.001
Quiet Time (sec) = 2
Sensitivity (A/V) = 0.001
Comp R (ohm) = 6.0

Results:

Channel 1:

Potential/V, Current/A
1.120,   5.966e-4
1.122,   5.070e-4
1.124,   4.277e-4
1.126,   3.692e-4
1.128,   3.252e-4
1.130,   2.889e-4
1.132,   2.612e-4
1.134,   2.404e-4
1.136,   2.230e-4
1.138,   2.097e-4
1.140,   1.971e-4
1.142,   1.877e-4
1.144,   1.798e-4
1.146,   1.727e-4
1.148,   1.666e-4
1.150,   1.616e-4
1.152,   1.576e-4
1.154,   1.540e-4
1.156,   1.508e-4
1.158,   1.476e-4
1.160,   1.450e-4
1.162,   1.423e-4
1.164,   1.402e-4
1.166,   1.389e-4
1.168,   1.379e-4
1.170,   1.369e-4
1.172,   1.355e-4
1.174,   1.345e-4
1.176,   1.337e-4
1.178,   1.330e-4
1.180,   1.326e-4
1.182,   1.321e-4
1.184,   1.315e-4
1.186,   1.316e-4
1.188,   1.308e-4
1.190,   1.307e-4
1.192,   1.310e-4
1.194,   1.308e-4
1.196,   1.307e-4
1.198,   1.307e-4
1.200,   1.306e-4
1.202,   1.309e-4
1.204,   1.310e-4
1.206,   1.312e-4
1.208,   1.312e-4
1.210,   1.317e-4
1.212,   1.321e-4
1.214,   1.321e-4
1.216,   1.323e-4
1.218,   1.330e-4
1.220,   1.333e-4
1.222,   1.335e-4
1.224,   1.337e-4
1.226,   1.344e-4
1.228,   1.348e-4
1.230,   1.350e-4
1.232,   1.352e-4
1.234,   1.356e-4
1.236,   1.359e-4
1.238,   1.359e-4
1.240,   1.361e-4
1.242,   1.367e-4
1.244,   1.371e-4
1.246,   1.371e-4
1.248,   1.374e-4
1.250,   1.380e-4
1.252,   1.380e-4
1.254,   1.381e-4
1.256,   1.384e-4
1.258,   1.385e-4
1.260,   1.387e-4
1.262,   1.387e-4
1.264,   1.386e-4
1.266,   1.390e-4
1.268,   1.388e-4
1.270,   1.389e-4
1.272,   1.388e-4
1.274,   1.391e-4
1.276,   1.390e-4
1.278,   1.388e-4
1.280,   1.385e-4
1.282,   1.390e-4
1.284,   1.387e-4
1.286,   1.382e-4
1.288,   1.384e-4
1.290,   1.383e-4
1.292,   1.383e-4
1.294,   1.383e-4
1.296,   1.379e-4
1.298,   1.379e-4
1.300,   1.379e-4
1.302,   1.375e-4
1.304,   1.375e-4
1.306,   1.375e-4
1.308,   1.375e-4
1.310,   1.372e-4
1.312,   1.373e-4
1.314,   1.377e-4
1.316,   1.376e-4
1.318,   1.374e-4
1.320,   1.378e-4
1.322,   1.380e-4
1.324,   1.380e-4
1.326,   1.381e-4
1.328,   1.382e-4
1.330,   1.387e-4
1.332,   1.390e-4
1.334,   1.392e-4
1.336,   1.394e-4
1.338,   1.400e-4
1.340,   1.403e-4
1.342,   1.407e-4
1.344,   1.410e-4
1.346,   1.423e-4
1.348,   1.425e-4
1.350,   1.431e-4
1.352,   1.439e-4
1.354,   1.449e-4
1.356,   1.456e-4
1.358,   1.466e-4
1.360,   1.473e-4
1.362,   1.487e-4
1.364,   1.499e-4
1.366,   1.509e-4
1.368,   1.523e-4
1.370,   1.539e-4
1.372,   1.554e-4
1.374,   1.569e-4
1.376,   1.584e-4
1.378,   1.615e-4
1.380,   1.631e-4
1.382,   1.664e-4
1.384,   1.694e-4
1.386,   1.719e-4
1.388,   1.743e-4
1.390,   1.783e-4
1.392,   1.822e-4
1.394,   1.876e-4
1.396,   1.922e-4
1.398,   1.998e-4
1.400,   2.067e-4
1.402,   2.140e-4
1.404,   2.221e-4
1.406,   2.327e-4
1.408,   2.436e-4
1.410,   2.574e-4
1.412,   2.712e-4
1.414,   2.870e-4
1.416,   3.093e-4
1.418,   3.277e-4
1.420,   3.521e-4
1.422,   3.835e-4
1.424,   4.147e-4
1.426,   4.496e-4
1.428,   4.844e-4
1.430,   5.296e-4
1.432,   5.796e-4
1.434,   6.262e-4
1.436,   6.817e-4
1.438,   7.434e-4
1.440,   8.119e-4
1.442,   8.874e-4
1.444,   9.653e-4
1.446,   1.054e-3
1.448,   1.147e-3
1.450,   1.256e-3
1.452,   1.368e-3
1.454,   1.495e-3
1.456,   1.620e-3
1.458,   1.768e-3
1.460,   1.916e-3
1.462,   2.080e-3
1.464,   2.252e-3
1.466,   2.441e-3
1.468,   2.630e-3
1.470,   2.844e-3
1.472,   3.075e-3
1.474,   3.307e-3
1.476,   3.529e-3
1.478,   3.770e-3
1.480,   4.032e-3
1.482,   4.382e-3
1.484,   4.700e-3
1.486,   5.023e-3
1.488,   5.340e-3
1.490,   5.719e-3
1.492,   6.093e-3
1.494,   6.550e-3
1.496,   6.898e-3
1.498,   7.448e-3
1.500,   8.055e-3
1.502,   8.950e-3
1.504,   9.353e-3
1.506,   1.006e-2
1.508,   1.006e-2