Folder: DASH/Experimental Records, Raw Data, and Supplementary Notes and Figures/batch4/final400

Note: README.md
# DASH
This is the online repository that stores code, data and supplementary figures of the research work: <Leveraging Data Mining, Active Learning, and Domain Adaptation in a Multi-Stage, Machine Learning-Driven Approach for the Efficient Discovery of Advanced Acidic Oxygen Evolution Electrocatalysts> by Rui Ding et. al. (https://arxiv.org/abs/2407.04877)
![Workflow Schematic](https://github.com/ruiding-uchicago/D.A.S.H./blob/main/Online%20Repository%20Figures/D.A.S.H.%20Workflow.jpg)
## Code Description

Our code is written and uploaded on GitHub in Jupyter notebook file format, which is already very easy to conduct and get results. Our code does not include providing a new python library, but users could track how we train machine learning models in Jupyter ipynb files. Also, we have provided all original dataset CSV files to drive the active learning flow. Additionally, we have detailed the python version and package environment used for this work, focusing on machine learning-related packages.

## Environment
This project was trained using Python version 3.9.12. Below is the list of machine learning-related packages and their versions used in this project on the local machine we used equipped with 2080 Ti GPU, users could install anaconda (https://www.anaconda.com/download) and using pip install to install the packages below for setting environment to run in the Jupyter notebook (https://docs.anaconda.com/ae-notebooks/user-guide/basic-tasks/apps/jupyter/index.html):

absl-py 1.2.0
ase 3.22.1
catboost 1.0.6
cython 0.29.28
dask 2022.2.1
deep-forest 0.1.7
gensim 4.1.2
h5py 3.6.0
keras 2.9.0
Keras-Preprocessing 1.1.2
keras-tcn 3.5.0
lightgbm 3.3.2
matplotlib 3.4.3
numpy 1.23.5
pandas 1.4.2
pytorch-lightning 2.0.1
pymatgen 2023.8.10
scikit-learn 1.0.2
scipy 1.8.0
scikit-opt  0.6.6
scikit-optimize 0.9.0
seaborn 0.11.2
tensorboard                  2.10.1
tensorboard-data-server      0.6.1
tensorboard-plugin-wit       1.8.1
tensorflow-estimator         2.10.0
tensorflow-gpu               2.10.0
tensorflow-io-gcs-filesystem 0.31.0
torch 2.0.0
torchvision 0.15.1
xgboost 1.6.2

File: B4_BEST_400_#1_Full-205mV.txt
Mar. 28, 2023   16:08:48
Linear Sweep Voltammetry
File: d:\current work\al_oer\electrochemical test data\batch 4\400\B4_BEST_400_#1_Full-205mV.txt
Data Source:  Experiment
Instrument Model:  CHI660E
Header:
Note:

Init E (V) = 1.084

Final E (V) = 1.483

Scan Rate (V/s) = 0.010
Sample Interval (V) = 0.001
Quiet Time (sec) = 2
Sensitivity (A/V) = 0.001
Comp R (ohm) = 4.8

Results:

Channel 1:

Potential/V, Current/A
1.084,   8.655e-5
1.086,   8.855e-5
1.088,   8.121e-5
1.090,   7.544e-5
1.092,   7.123e-5
1.094,   6.736e-5
1.096,   6.434e-5
1.098,   6.182e-5
1.100,   5.955e-5
1.102,   5.782e-5
1.104,   5.635e-5
1.106,   5.494e-5
1.108,   5.361e-5
1.110,   5.260e-5
1.112,   5.175e-5
1.114,   5.084e-5
1.116,   5.008e-5
1.118,   4.964e-5
1.120,   4.899e-5
1.122,   4.843e-5
1.124,   4.798e-5
1.126,   4.757e-5
1.128,   4.730e-5
1.130,   4.703e-5
1.132,   4.676e-5
1.134,   4.671e-5
1.136,   4.639e-5
1.138,   4.585e-5
1.140,   4.568e-5
1.142,   4.556e-5
1.144,   4.550e-5
1.146,   4.530e-5
1.148,   4.512e-5
1.150,   4.506e-5
1.152,   4.502e-5
1.154,   4.474e-5
1.156,   4.483e-5
1.158,   4.490e-5
1.160,   4.474e-5
1.162,   4.474e-5
1.164,   4.460e-5
1.166,   4.473e-5
1.168,   4.467e-5
1.170,   4.455e-5
1.172,   4.496e-5
1.174,   4.497e-5
1.176,   4.485e-5
1.178,   4.466e-5
1.180,   4.466e-5
1.182,   4.482e-5
1.184,   4.467e-5
1.186,   4.449e-5
1.188,   4.442e-5
1.190,   4.458e-5
1.192,   4.442e-5
1.194,   4.445e-5
1.196,   4.413e-5
1.198,   4.423e-5
1.200,   4.420e-5
1.202,   4.388e-5
1.204,   4.394e-5
1.206,   4.392e-5
1.208,   4.381e-5
1.210,   4.363e-5
1.212,   4.346e-5
1.214,   4.362e-5
1.216,   4.343e-5
1.218,   4.323e-5
1.220,   4.332e-5
1.222,   4.324e-5
1.224,   4.303e-5
1.226,   4.292e-5
1.228,   4.278e-5
1.230,   4.287e-5
1.232,   4.282e-5
1.234,   4.251e-5
1.236,   4.259e-5
1.238,   4.262e-5
1.240,   4.239e-5
1.242,   4.222e-5
1.244,   4.207e-5
1.246,   4.228e-5
1.248,   4.263e-5
1.250,   4.234e-5
1.252,   4.253e-5
1.254,   4.248e-5
1.256,   4.236e-5
1.258,   4.231e-5
1.260,   4.200e-5
1.262,   4.201e-5
1.264,   4.206e-5
1.266,   4.183e-5
1.268,   4.168e-5
1.270,   4.181e-5
1.272,   4.177e-5
1.274,   4.161e-5
1.276,   4.153e-5
1.278,   4.172e-5
1.280,   4.157e-5
1.282,   4.152e-5
1.284,   4.164e-5
1.286,   4.173e-5
1.288,   4.172e-5
1.290,   4.170e-5
1.292,   4.170e-5
1.294,   4.193e-5
1.296,   4.207e-5
1.298,   4.190e-5
1.300,   4.207e-5
1.302,   4.235e-5
1.304,   4.252e-5
1.306,   4.261e-5
1.308,   4.283e-5
1.310,   4.338e-5
1.312,   4.338e-5
1.314,   4.363e-5
1.316,   4.395e-5
1.318,   4.447e-5
1.320,   4.472e-5
1.322,   4.518e-5
1.324,   4.553e-5
1.326,   4.619e-5
1.328,   4.671e-5
1.330,   4.724e-5
1.332,   4.791e-5
1.334,   4.877e-5
1.336,   4.955e-5
1.338,   5.038e-5
1.340,   5.149e-5
1.342,   5.279e-5
1.344,   5.397e-5
1.346,   5.532e-5
1.348,   5.708e-5
1.350,   5.889e-5
1.352,   6.078e-5
1.354,   6.309e-5
1.356,   6.537e-5
1.358,   6.847e-5
1.360,   7.168e-5
1.362,   7.505e-5
1.364,   7.921e-5
1.366,   8.395e-5
1.368,   8.897e-5
1.370,   9.449e-5
1.372,   1.010e-4
1.374,   1.083e-4
1.376,   1.164e-4
1.378,   1.252e-4
1.380,   1.356e-4
1.382,   1.472e-4
1.384,   1.619e-4
1.386,   1.752e-4
1.388,   1.913e-4
1.390,   2.099e-4
1.392,   2.302e-4
1.394,   2.528e-4
1.396,   2.782e-4
1.398,   3.067e-4
1.400,   3.384e-4
1.402,   3.729e-4
1.404,   4.116e-4
1.406,   4.564e-4
1.408,   5.024e-4
1.410,   5.550e-4
1.412,   6.130e-4
1.414,   6.770e-4
1.416,   7.465e-4
1.418,   8.214e-4
1.420,   9.062e-4
1.422,   9.918e-4
1.424,   1.101e-3
1.426,   1.212e-3
1.428,   1.334e-3
1.430,   1.465e-3
1.432,   1.608e-3
1.434,   1.762e-3
1.436,   1.924e-3
1.438,   2.116e-3
1.440,   2.321e-3
1.442,   2.526e-3
1.444,   2.766e-3
1.446,   2.998e-3
1.448,   3.268e-3
1.450,   3.535e-3
1.452,   3.798e-3
1.454,   4.095e-3
1.456,   4.434e-3
1.458,   4.756e-3
1.460,   5.060e-3
1.462,   5.399e-3
1.464,   5.786e-3
1.466,   6.163e-3
1.468,   6.499e-3
1.470,   6.797e-3
1.472,   7.161e-3
1.474,   7.628e-3
1.476,   8.019e-3
1.478,   8.664e-3
1.480,   9.397e-3
1.482,   1.006e-2
1.483,   1.006e-2

File: B4_BEST_400_#1_High_Quality(#17)-228mV.txt
Mar. 27, 2023   14:28:26
Linear Sweep Voltammetry
File: d:\current work\al_oer\electrochemical test data\batch 4\400\B4_BEST_400_#1_High_Quality(#17)-228mV.txt
Data Source:  Experiment
Instrument Model:  CHI660E
Header:
Note:

Init E (V) = 1.087

Final E (V) = 1.586

Scan Rate (V/s) = 0.010
Sample Interval (V) = 0.001
Quiet Time (sec) = 2
Sensitivity (A/V) = 0.001
Comp R (ohm) = 6.7

Results:

Channel 1:
Ep = 1.317V
ip = 1.005e-2A
Ah = 5.517e-2C

Potential/V, Current/A
1.087,   -2.755e-6
1.089,   6.393e-7
1.091,   1.364e-6
1.093,   1.940e-6
1.095,   2.429e-6
1.097,   2.812e-6
1.099,   3.155e-6
1.101,   3.439e-6
1.103,   3.664e-6
1.105,   3.932e-6
1.107,   4.134e-6
1.109,   4.279e-6
1.111,   4.490e-6
1.113,   4.625e-6
1.115,   4.742e-6
1.117,   4.875e-6
1.119,   4.960e-6
1.121,   5.126e-6
1.123,   5.194e-6
1.125,   5.265e-6
1.127,   5.379e-6
1.129,   5.521e-6
1.131,   5.524e-6
1.133,   5.638e-6
1.135,   5.714e-6
1.137,   5.789e-6
1.139,   5.882e-6
1.141,   5.910e-6
1.143,   5.983e-6
1.145,   6.102e-6
1.147,   6.161e-6
1.149,   6.185e-6
1.151,   6.215e-6
1.153,   6.314e-6
1.155,   6.390e-6
1.157,   6.422e-6
1.159,   6.505e-6
1.161,   6.573e-6
1.163,   6.616e-6
1.165,   6.640e-6
1.167,   6.708e-6
1.169,   6.771e-6
1.171,   6.820e-6
1.173,   6.870e-6
1.175,   6.932e-6
1.177,   6.986e-6
1.179,   7.061e-6
1.181,   7.054e-6
1.183,   7.133e-6
1.185,   7.186e-6
1.187,   7.251e-6
1.189,   7.279e-6
1.191,   7.341e-6
1.193,   7.389e-6
1.195,   7.422e-6
1.197,   7.475e-6
1.199,   7.487e-6
1.201,   7.573e-6
1.203,   7.610e-6
1.205,   7.618e-6
1.207,   7.665e-6
1.209,   7.702e-6
1.211,   7.729e-6
1.213,   7.752e-6
1.215,   7.801e-6
1.217,   7.849e-6
1.219,   7.884e-6
1.221,   7.891e-6
1.223,   7.981e-6
1.225,   7.987e-6
1.227,   8.010e-6
1.229,   8.009e-6
1.231,   8.051e-6
1.233,   8.132e-6
1.235,   8.128e-6
1.237,   8.154e-6
1.239,   8.160e-6
1.241,   8.235e-6
1.243,   8.244e-6
1.245,   8.257e-6
1.247,   8.256e-6
1.249,   8.365e-6
1.251,   8.355e-6
1.253,   8.342e-6
1.255,   8.386e-6
1.257,   8.438e-6
1.259,   8.455e-6
1.261,   8.497e-6
1.263,   8.515e-6
1.265,   8.578e-6
1.267,   8.599e-6
1.269,   8.591e-6
1.271,   8.639e-6
1.273,   8.688e-6
1.275,   8.733e-6
1.277,   8.751e-6
1.279,   8.790e-6
1.281,   8.905e-6
1.283,   8.953e-6
1.285,   8.940e-6
1.287,   9.012e-6
1.289,   9.062e-6
1.291,   9.089e-6
1.293,   9.176e-6
1.295,   9.236e-6
1.297,   9.318e-6
1.299,   9.395e-6
1.301,   9.447e-6
1.303,   9.539e-6
1.305,   9.648e-6
1.307,   9.700e-6
1.309,   9.793e-6
1.311,   9.918e-6
1.313,   1.007e-5
1.315,   1.015e-5
1.317,   1.026e-5
1.319,   1.037e-5
1.321,   1.052e-5
1.323,   1.067e-5
1.325,   1.084e-5
1.327,   1.100e-5
1.329,   1.120e-5
1.331,   1.143e-5
1.333,   1.158e-5
1.335,   1.184e-5
1.337,   1.216e-5
1.339,   1.245e-5
1.341,   1.266e-5
1.343,   1.306e-5
1.345,   1.343e-5
1.347,   1.380e-5
1.349,   1.422e-5
1.351,   1.477e-5
1.353,   1.535e-5
1.355,   1.596e-5
1.357,   1.662e-5
1.359,   1.742e-5
1.361,   1.832e-5
1.363,   1.935e-5
1.365,   2.046e-5
1.367,   2.177e-5
1.369,   2.325e-5
1.371,   2.490e-5
1.373,   2.682e-5
1.375,   2.890e-5
1.377,   3.148e-5
1.379,   3.428e-5
1.381,   3.741e-5
1.383,   4.096e-5
1.385,   4.518e-5
1.387,   4.991e-5
1.389,   5.531e-5
1.391,   6.142e-5
1.393,   6.853e-5
1.395,   7.646e-5
1.397,   8.542e-5
1.399,   9.553e-5
1.401,   1.070e-4
1.403,   1.200e-4
1.405,   1.344e-4
1.407,   1.506e-4
1.409,   1.689e-4
1.411,   1.892e-4
1.413,   2.115e-4
1.415,   2.367e-4
1.417,   2.646e-4
1.419,   2.951e-4
1.421,   3.293e-4
1.423,   3.662e-4
1.425,   4.071e-4
1.427,   4.519e-4
1.429,   5.010e-4
1.431,   5.544e-4
1.433,   6.134e-4
1.435,   6.769e-4
1.437,   7.461e-4
1.439,   8.266e-4
1.441,   9.101e-4
1.443,   9.975e-4
1.445,   1.094e-3
1.447,   1.197e-3
1.449,   1.311e-3
1.451,   1.428e-3
1.453,   1.558e-3
1.455,   1.690e-3
1.457,   1.831e-3
1.459,   1.985e-3
1.461,   2.148e-3
1.463,   2.318e-3
1.465,   2.494e-3
1.467,   2.780e-3
1.469,   3.007e-3
1.471,   3.235e-3
1.473,   3.443e-3
1.475,   3.708e-3
1.477,   3.944e-3
1.479,   4.390e-3
1.481,   4.848e-3
1.483,   5.150e-3
1.485,   5.510e-3
1.487,   5.952e-3
1.489,   6.349e-3
1.491,   6.923e-3
1.493,   7.281e-3
1.495,   7.821e-3
1.497,   8.554e-3
1.499,   9.410e-3
1.501,   9.689e-3
1.503,   1.006e-2
1.505,   1.006e-2
1.507,   1.006e-2
1.509,   1.006e-2
1.511,   1.006e-2
1.513,   1.006e-2
1.515,   1.006e-2
1.517,   1.006e-2
1.519,   1.006e-2
1.521,   1.006e-2
1.523,   1.006e-2
1.525,   1.006e-2
1.527,   1.006e-2
1.529,   1.006e-2
1.531,   1.006e-2
1.533,   1.006e-2
1.535,   1.006e-2
1.537,   1.006e-2
1.539,   1.006e-2
1.541,   1.006e-2
1.543,   1.006e-2
1.545,   1.006e-2
1.547,   1.006e-2
1.549,   1.006e-2
1.551,   1.006e-2
1.553,   1.006e-2
1.555,   1.006e-2
1.557,   1.006e-2
1.559,   1.006e-2
1.561,   1.006e-2
1.563,   1.006e-2
1.565,   1.006e-2
1.567,   1.006e-2
1.569,   1.006e-2
1.571,   1.006e-2
1.573,   1.006e-2
1.575,   1.006e-2
1.577,   1.006e-2
1.579,   1.006e-2
1.581,   1.006e-2
1.583,   1.006e-2
1.585,   1.006e-2
1.586,   1.006e-2

File: B4_BEST_400_#2_Full-172mV.txt
Mar. 27, 2023   15:04:01
Linear Sweep Voltammetry
File: d:\current work\al_oer\electrochemical test data\batch 4\400\B4_BEST_400_#2_Full-172mV.txt
Data Source:  Experiment
Instrument Model:  CHI660E
Header:
Note:

Init E (V) = 1.078

Final E (V) = 1.437

Scan Rate (V/s) = 0.010
Sample Interval (V) = 0.001
Quiet Time (sec) = 2
Sensitivity (A/V) = 0.001
Comp R (ohm) = 5.1

Results:

Channel 1:

Potential/V, Current/A
1.078,   3.143e-4
1.080,   3.109e-4
1.082,   2.746e-4
1.084,   2.478e-4
1.086,   2.288e-4
1.088,   2.138e-4
1.090,   2.021e-4
1.092,   1.931e-4
1.094,   1.857e-4
1.096,   1.803e-4
1.098,   1.760e-4
1.100,   1.715e-4
1.102,   1.680e-4
1.104,   1.657e-4
1.106,   1.634e-4
1.108,   1.611e-4
1.110,   1.595e-4
1.112,   1.589e-4
1.114,   1.576e-4
1.116,   1.560e-4
1.118,   1.564e-4
1.120,   1.553e-4
1.122,   1.549e-4
1.124,   1.546e-4
1.126,   1.557e-4
1.128,   1.551e-4
1.130,   1.540e-4
1.132,   1.526e-4
1.134,   1.536e-4
1.136,   1.566e-4
1.138,   1.550e-4
1.140,   1.555e-4
1.142,   1.561e-4
1.144,   1.562e-4
1.146,   1.575e-4
1.148,   1.537e-4
1.150,   1.605e-4
1.152,   1.566e-4
1.154,   1.558e-4
1.156,   1.592e-4
1.158,   1.620e-4
1.160,   1.656e-4
1.162,   1.646e-4
1.164,   1.603e-4
1.166,   1.657e-4
1.168,   1.567e-4
1.170,   1.647e-4
1.172,   1.598e-4
1.174,   1.700e-4
1.176,   1.636e-4
1.178,   1.531e-4
1.180,   1.664e-4
1.182,   1.746e-4
1.184,   1.784e-4
1.186,   1.676e-4
1.188,   1.572e-4
1.190,   1.549e-4
1.192,   1.552e-4
1.194,   1.583e-4
1.196,   1.656e-4
1.198,   1.707e-4
1.200,   1.730e-4
1.202,   1.769e-4
1.204,   1.802e-4
1.206,   1.804e-4
1.208,   1.811e-4
1.210,   1.809e-4
1.212,   1.818e-4
1.214,   1.827e-4
1.216,   1.805e-4
1.218,   1.789e-4
1.220,   1.776e-4
1.222,   1.761e-4
1.224,   1.757e-4
1.226,   1.728e-4
1.228,   1.681e-4
1.230,   1.648e-4
1.232,   1.634e-4
1.234,   1.608e-4
1.236,   1.594e-4
1.238,   1.580e-4
1.240,   1.572e-4
1.242,   1.553e-4
1.244,   1.558e-4
1.246,   1.578e-4
1.248,   1.598e-4
1.250,   1.617e-4
1.252,   1.633e-4
1.254,   1.640e-4
1.256,   1.666e-4
1.258,   1.703e-4
1.260,   1.725e-4
1.262,   1.740e-4
1.264,   1.762e-4
1.266,   1.770e-4
1.268,   1.792e-4
1.270,   1.819e-4
1.272,   1.848e-4
1.274,   1.855e-4
1.276,   1.857e-4
1.278,   1.874e-4
1.280,   1.881e-4
1.282,   1.898e-4
1.284,   1.905e-4
1.286,   1.901e-4
1.288,   1.897e-4
1.290,   1.887e-4
1.292,   1.860e-4
1.294,   1.836e-4
1.296,   1.822e-4
1.298,   1.776e-4
1.300,   1.722e-4
1.302,   1.683e-4
1.304,   1.680e-4
1.306,   1.687e-4
1.308,   1.735e-4
1.310,   1.828e-4
1.312,   1.933e-4
1.314,   2.018e-4
1.316,   2.026e-4
1.318,   1.929e-4
1.320,   1.824e-4
1.322,   1.783e-4
1.324,   1.901e-4
1.326,   2.080e-4
1.328,   2.101e-4
1.330,   1.942e-4
1.332,   1.884e-4
1.334,   2.116e-4
1.336,   2.210e-4
1.338,   2.009e-4
1.340,   2.104e-4
1.342,   2.324e-4
1.344,   2.118e-4
1.346,   2.297e-4
1.348,   2.391e-4
1.350,   2.288e-4
1.352,   2.570e-4
1.354,   2.439e-4
1.356,   2.737e-4
1.358,   2.643e-4
1.360,   2.910e-4
1.362,   3.029e-4
1.364,   3.077e-4
1.366,   3.373e-4
1.368,   3.632e-4
1.370,   3.749e-4
1.372,   4.032e-4
1.374,   4.425e-4
1.376,   4.825e-4
1.378,   5.231e-4
1.380,   5.745e-4
1.382,   6.310e-4
1.384,   6.967e-4
1.386,   7.736e-4
1.388,   8.615e-4
1.390,   9.641e-4
1.392,   1.066e-3
1.394,   1.181e-3
1.396,   1.340e-3
1.398,   1.485e-3
1.400,   1.677e-3
1.402,   1.898e-3
1.404,   2.115e-3
1.406,   2.378e-3
1.408,   2.681e-3
1.410,   2.996e-3
1.412,   3.318e-3
1.414,   3.671e-3
1.416,   4.093e-3
1.418,   4.555e-3
1.420,   5.042e-3
1.422,   5.558e-3
1.424,   6.119e-3
1.426,   6.713e-3
1.428,   7.336e-3
1.430,   7.935e-3
1.432,   8.436e-3
1.434,   9.399e-3
1.436,   1.001e-2
1.437,   1.006e-2

File: B4_BEST_400_#4_Full-227mV.txt
Mar. 28, 2023   16:29:28
Linear Sweep Voltammetry
File: d:\current work\al_oer\electrochemical test data\batch 4\400\B4_BEST_400_#4_Full-227mV.txt
Data Source:  Experiment
Instrument Model:  CHI660E
Header:
Note:

Init E (V) = 1.098

Final E (V) = 1.497

Scan Rate (V/s) = 0.010
Sample Interval (V) = 0.001
Quiet Time (sec) = 2
Sensitivity (A/V) = 0.001
Comp R (ohm) = 5.1

Results:

Channel 1:

Potential/V, Current/A
1.098,   6.300e-5
1.100,   6.775e-5
1.102,   6.269e-5
1.104,   5.864e-5
1.106,   5.562e-5
1.108,   5.304e-5
1.110,   5.078e-5
1.112,   4.898e-5
1.114,   4.746e-5
1.116,   4.629e-5
1.118,   4.530e-5
1.120,   4.420e-5
1.122,   4.341e-5
1.124,   4.289e-5
1.126,   4.232e-5
1.128,   4.171e-5
1.130,   4.123e-5
1.132,   4.111e-5
1.134,   4.069e-5
1.136,   4.038e-5
1.138,   4.019e-5
1.140,   4.012e-5
1.142,   3.994e-5
1.144,   4.006e-5
1.146,   3.964e-5
1.148,   3.973e-5
1.150,   3.964e-5
1.152,   3.953e-5
1.154,   3.953e-5
1.156,   3.959e-5
1.158,   3.961e-5
1.160,   3.956e-5
1.162,   3.949e-5
1.164,   3.982e-5
1.166,   3.977e-5
1.168,   3.971e-5
1.170,   3.992e-5
1.172,   4.003e-5
1.174,   4.000e-5
1.176,   4.010e-5
1.178,   4.011e-5
1.180,   4.036e-5
1.182,   4.044e-5
1.184,   4.046e-5
1.186,   4.053e-5
1.188,   4.079e-5
1.190,   4.080e-5
1.192,   4.082e-5
1.194,   4.087e-5
1.196,   4.121e-5
1.198,   4.120e-5
1.200,   4.113e-5
1.202,   4.130e-5
1.204,   4.143e-5
1.206,   4.157e-5
1.208,   4.160e-5
1.210,   4.152e-5
1.212,   4.176e-5
1.214,   4.179e-5
1.216,   4.171e-5
1.218,   4.176e-5
1.220,   4.192e-5
1.222,   4.194e-5
1.224,   4.191e-5
1.226,   4.187e-5
1.228,   4.203e-5
1.230,   4.201e-5
1.232,   4.184e-5
1.234,   4.203e-5
1.236,   4.201e-5
1.238,   4.201e-5
1.240,   4.194e-5
1.242,   4.185e-5
1.244,   4.206e-5
1.246,   4.197e-5
1.248,   4.181e-5
1.250,   4.181e-5
1.252,   4.192e-5
1.254,   4.187e-5
1.256,   4.169e-5
1.258,   4.165e-5
1.260,   4.187e-5
1.262,   4.168e-5
1.264,   4.157e-5
1.266,   4.167e-5
1.268,   4.169e-5
1.270,   4.161e-5
1.272,   4.160e-5
1.274,   4.153e-5
1.276,   4.163e-5
1.278,   4.160e-5
1.280,   4.147e-5
1.282,   4.153e-5
1.284,   4.160e-5
1.286,   4.158e-5
1.288,   4.149e-5
1.290,   4.149e-5
1.292,   4.176e-5
1.294,   4.170e-5
1.296,   4.160e-5
1.298,   4.180e-5
1.300,   4.194e-5
1.302,   4.195e-5
1.304,   4.199e-5
1.306,   4.202e-5
1.308,   4.233e-5
1.310,   4.242e-5
1.312,   4.240e-5
1.314,   4.265e-5
1.316,   4.285e-5
1.318,   4.303e-5
1.320,   4.304e-5
1.322,   4.332e-5
1.324,   4.387e-5
1.326,   4.396e-5
1.328,   4.411e-5
1.330,   4.450e-5
1.332,   4.489e-5
1.334,   4.513e-5
1.336,   4.567e-5
1.338,   4.587e-5
1.340,   4.661e-5
1.342,   4.702e-5
1.344,   4.744e-5
1.346,   4.804e-5
1.348,   4.888e-5
1.350,   4.951e-5
1.352,   5.014e-5
1.354,   5.098e-5
1.356,   5.214e-5
1.358,   5.312e-5
1.360,   5.407e-5
1.362,   5.555e-5
1.364,   5.684e-5
1.366,   5.824e-5
1.368,   5.985e-5
1.370,   6.176e-5
1.372,   6.399e-5
1.374,   6.635e-5
1.376,   6.865e-5
1.378,   7.150e-5
1.380,   7.491e-5
1.382,   7.843e-5
1.384,   8.232e-5
1.386,   8.665e-5
1.388,   9.203e-5
1.390,   9.727e-5
1.392,   1.034e-4
1.394,   1.105e-4
1.396,   1.184e-4
1.398,   1.271e-4
1.400,   1.368e-4
1.402,   1.475e-4
1.404,   1.600e-4
1.406,   1.736e-4
1.408,   1.886e-4
1.410,   2.054e-4
1.412,   2.246e-4
1.414,   2.457e-4
1.416,   2.691e-4
1.418,   2.950e-4
1.420,   3.246e-4
1.422,   3.566e-4
1.424,   3.923e-4
1.426,   4.320e-4
1.428,   4.763e-4
1.430,   5.247e-4
1.432,   5.786e-4
1.434,   6.378e-4
1.436,   7.036e-4
1.438,   7.758e-4
1.440,   8.547e-4
1.442,   9.416e-4
1.444,   1.037e-3
1.446,   1.141e-3
1.448,   1.257e-3
1.450,   1.379e-3
1.452,   1.514e-3
1.454,   1.660e-3
1.456,   1.820e-3
1.458,   1.990e-3
1.460,   2.173e-3
1.462,   2.372e-3
1.464,   2.578e-3
1.466,   2.793e-3
1.468,   3.017e-3
1.470,   3.269e-3
1.472,   3.720e-3
1.474,   3.964e-3
1.476,   4.245e-3
1.478,   4.556e-3
1.480,   4.887e-3
1.482,   5.199e-3
1.484,   5.556e-3
1.486,   6.091e-3
1.488,   6.438e-3
1.490,   6.783e-3
1.492,   7.117e-3
1.494,   7.508e-3
1.496,   7.923e-3
1.497,   8.116e-3

File: B4_BEST_400_#4_High_Quality(#20)-198mV.txt
Mar. 27, 2023   15:38:27
Linear Sweep Voltammetry
File: d:\current work\al_oer\electrochemical test data\batch 4\400\B4_BEST_400_#4_High_Quality(#20)-198mV.txt
Data Source:  Experiment
Instrument Model:  CHI660E
Header:
Note:

Init E (V) = 1.047

Final E (V) = 1.446

Scan Rate (V/s) = 0.010
Sample Interval (V) = 0.001
Quiet Time (sec) = 2
Sensitivity (A/V) = 0.001
Comp R (ohm) = 5.1

Results:

Channel 1:

Potential/V, Current/A
1.047,   4.064e-5
1.049,   4.255e-5
1.051,   3.916e-5
1.053,   3.663e-5
1.055,   3.463e-5
1.057,   3.295e-5
1.059,   3.147e-5
1.061,   3.031e-5
1.063,   2.932e-5
1.065,   2.855e-5
1.067,   2.794e-5
1.069,   2.724e-5
1.071,   2.672e-5
1.073,   2.634e-5
1.075,   2.592e-5
1.077,   2.557e-5
1.079,   2.530e-5
1.081,   2.524e-5
1.083,   2.494e-5
1.085,   2.470e-5
1.087,   2.462e-5
1.089,   2.456e-5
1.091,   2.447e-5
1.093,   2.443e-5
1.095,   2.433e-5
1.097,   2.440e-5
1.099,   2.436e-5
1.101,   2.433e-5
1.103,   2.436e-5
1.105,   2.452e-5
1.107,   2.452e-5
1.109,   2.453e-5
1.111,   2.460e-5
1.113,   2.482e-5
1.115,   2.480e-5
1.117,   2.486e-5
1.119,   2.506e-5
1.121,   2.515e-5
1.123,   2.526e-5
1.125,   2.530e-5
1.127,   2.537e-5
1.129,   2.566e-5
1.131,   2.576e-5
1.133,   2.576e-5
1.135,   2.595e-5
1.137,   2.615e-5
1.139,   2.624e-5
1.141,   2.633e-5
1.143,   2.641e-5
1.145,   2.666e-5
1.147,   2.674e-5
1.149,   2.680e-5
1.151,   2.697e-5
1.153,   2.718e-5
1.155,   2.724e-5
1.157,   2.734e-5
1.159,   2.731e-5
1.161,   2.759e-5
1.163,   2.768e-5
1.165,   2.766e-5
1.167,   2.777e-5
1.169,   2.794e-5
1.171,   2.803e-5
1.173,   2.801e-5
1.175,   2.805e-5
1.177,   2.827e-5
1.179,   2.831e-5
1.181,   2.829e-5
1.183,   2.845e-5
1.185,   2.849e-5
1.187,   2.847e-5
1.189,   2.847e-5
1.191,   2.854e-5
1.193,   2.868e-5
1.195,   2.872e-5
1.197,   2.863e-5
1.199,   2.864e-5
1.201,   2.882e-5
1.203,   2.879e-5
1.205,   2.880e-5
1.207,   2.877e-5
1.209,   2.896e-5
1.211,   2.886e-5
1.213,   2.883e-5
1.215,   2.900e-5
1.217,   2.897e-5
1.219,   2.900e-5
1.221,   2.905e-5
1.223,   2.901e-5
1.225,   2.910e-5
1.227,   2.920e-5
1.229,   2.913e-5
1.231,   2.913e-5
1.233,   2.932e-5
1.235,   2.925e-5
1.237,   2.928e-5
1.239,   2.929e-5
1.241,   2.950e-5
1.243,   2.952e-5
1.245,   2.947e-5
1.247,   2.960e-5
1.249,   2.981e-5
1.251,   2.979e-5
1.253,   2.986e-5
1.255,   2.994e-5
1.257,   3.021e-5
1.259,   3.031e-5
1.261,   3.032e-5
1.263,   3.046e-5
1.265,   3.080e-5
1.267,   3.081e-5
1.269,   3.096e-5
1.271,   3.117e-5
1.273,   3.164e-5
1.275,   3.167e-5
1.277,   3.183e-5
1.279,   3.211e-5
1.281,   3.248e-5
1.283,   3.278e-5
1.285,   3.312e-5
1.287,   3.332e-5
1.289,   3.388e-5
1.291,   3.422e-5
1.293,   3.456e-5
1.295,   3.509e-5
1.297,   3.569e-5
1.299,   3.616e-5
1.301,   3.662e-5
1.303,   3.723e-5
1.305,   3.798e-5
1.307,   3.859e-5
1.309,   3.924e-5
1.311,   4.026e-5
1.313,   4.122e-5
1.315,   4.214e-5
1.317,   4.315e-5
1.319,   4.425e-5
1.321,   4.573e-5
1.323,   4.708e-5
1.325,   4.843e-5
1.327,   5.007e-5
1.329,   5.194e-5
1.331,   5.382e-5
1.333,   5.588e-5
1.335,   5.805e-5
1.337,   6.094e-5
1.339,   6.349e-5
1.341,   6.645e-5
1.343,   6.981e-5
1.345,   7.343e-5
1.347,   7.745e-5
1.349,   8.190e-5
1.351,   8.651e-5
1.353,   9.185e-5
1.355,   9.749e-5
1.357,   1.036e-4
1.359,   1.105e-4
1.361,   1.184e-4
1.363,   1.267e-4
1.365,   1.357e-4
1.367,   1.456e-4
1.369,   1.571e-4
1.371,   1.692e-4
1.373,   1.824e-4
1.375,   1.971e-4
1.377,   2.135e-4
1.379,   2.313e-4
1.381,   2.509e-4
1.383,   2.724e-4
1.385,   2.964e-4
1.387,   3.225e-4
1.389,   3.509e-4
1.391,   3.823e-4
1.393,   4.170e-4
1.395,   4.546e-4
1.397,   4.957e-4
1.399,   5.405e-4
1.401,   5.902e-4
1.403,   6.442e-4
1.405,   7.020e-4
1.407,   7.659e-4
1.409,   8.350e-4
1.411,   9.110e-4
1.413,   9.918e-4
1.415,   1.080e-3
1.417,   1.177e-3
1.419,   1.281e-3
1.421,   1.390e-3
1.423,   1.511e-3
1.425,   1.640e-3
1.427,   1.776e-3
1.429,   1.929e-3
1.431,   2.090e-3
1.433,   2.257e-3
1.435,   2.440e-3
1.437,   2.633e-3
1.439,   2.848e-3
1.441,   3.057e-3
1.443,   3.293e-3
1.445,   3.533e-3
1.446,   3.653e-3