Folder: DASH/Experimental Records, Raw Data, and Supplementary Notes and Figures/batch4/final400 (part 4)

File: B4_VARIANCE_400_#7_Full(#15)-351mV.txt
Mar. 26, 2023   16:59:58
Linear Sweep Voltammetry
File: d:\current work\al_oer\electrochemical test data\batch 4\400\B4_VARIANCE_400_#7_Full(#15)-351mV.txt
Data Source:  Experiment
Instrument Model:  CHI660E
Header:
Note:

Init E (V) = 1.107

Final E (V) = 1.706

Scan Rate (V/s) = 0.010
Sample Interval (V) = 0.001
Quiet Time (sec) = 2
Sensitivity (A/V) = 0.001
Comp R (ohm) = 5.7

Results:

Channel 1:

Potential/V, Current/A
1.107,   -1.204e-6
1.109,   -1.470e-7
1.111,   1.982e-7
1.113,   3.947e-7
1.115,   6.495e-7
1.117,   7.974e-7
1.119,   9.688e-7
1.121,   1.082e-6
1.123,   1.216e-6
1.125,   1.307e-6
1.127,   1.416e-6
1.129,   1.515e-6
1.131,   1.567e-6
1.133,   1.664e-6
1.135,   1.712e-6
1.137,   1.783e-6
1.139,   1.855e-6
1.141,   1.952e-6
1.143,   1.966e-6
1.145,   2.030e-6
1.147,   2.056e-6
1.149,   2.134e-6
1.151,   2.149e-6
1.153,   2.213e-6
1.155,   2.283e-6
1.157,   2.295e-6
1.159,   2.350e-6
1.161,   2.347e-6
1.163,   2.437e-6
1.165,   2.448e-6
1.167,   2.516e-6
1.169,   2.568e-6
1.171,   2.607e-6
1.173,   2.656e-6
1.175,   2.652e-6
1.177,   2.710e-6
1.179,   2.784e-6
1.181,   2.798e-6
1.183,   2.847e-6
1.185,   2.876e-6
1.187,   2.902e-6
1.189,   2.944e-6
1.191,   2.964e-6
1.193,   3.013e-6
1.195,   3.049e-6
1.197,   3.103e-6
1.199,   3.105e-6
1.201,   3.160e-6
1.203,   3.174e-6
1.205,   3.222e-6
1.207,   3.270e-6
1.209,   3.272e-6
1.211,   3.331e-6
1.213,   3.432e-6
1.215,   3.371e-6
1.217,   3.421e-6
1.219,   3.415e-6
1.221,   3.488e-6
1.223,   3.493e-6
1.225,   3.501e-6
1.227,   3.543e-6
1.229,   3.575e-6
1.231,   3.600e-6
1.233,   3.618e-6
1.235,   3.659e-6
1.237,   3.678e-6
1.239,   3.680e-6
1.241,   3.715e-6
1.243,   3.727e-6
1.245,   3.760e-6
1.247,   3.790e-6
1.249,   3.811e-6
1.251,   3.819e-6
1.253,   3.852e-6
1.255,   3.837e-6
1.257,   3.864e-6
1.259,   3.880e-6
1.261,   3.952e-6
1.263,   3.945e-6
1.265,   3.937e-6
1.267,   3.981e-6
1.269,   4.019e-6
1.271,   4.021e-6
1.273,   4.036e-6
1.275,   4.043e-6
1.277,   4.066e-6
1.279,   4.108e-6
1.281,   4.102e-6
1.283,   4.121e-6
1.285,   4.179e-6
1.287,   4.174e-6
1.289,   4.195e-6
1.291,   4.242e-6
1.293,   4.231e-6
1.295,   4.276e-6
1.297,   4.278e-6
1.299,   4.307e-6
1.301,   4.354e-6
1.303,   4.346e-6
1.305,   4.383e-6
1.307,   4.410e-6
1.309,   4.442e-6
1.311,   4.460e-6
1.313,   4.509e-6
1.315,   4.532e-6
1.317,   4.589e-6
1.319,   4.630e-6
1.321,   4.644e-6
1.323,   4.676e-6
1.325,   4.700e-6
1.327,   4.756e-6
1.329,   4.787e-6
1.331,   4.814e-6
1.333,   4.864e-6
1.335,   4.872e-6
1.337,   4.931e-6
1.339,   4.956e-6
1.341,   5.014e-6
1.343,   5.051e-6
1.345,   5.108e-6
1.347,   5.114e-6
1.349,   5.163e-6
1.351,   5.198e-6
1.353,   5.252e-6
1.355,   5.296e-6
1.357,   5.317e-6
1.359,   5.366e-6
1.361,   5.428e-6
1.363,   5.465e-6
1.365,   5.556e-6
1.367,   5.610e-6
1.369,   5.647e-6
1.371,   5.688e-6
1.373,   5.732e-6
1.375,   5.814e-6
1.377,   5.854e-6
1.379,   5.930e-6
1.381,   6.001e-6
1.383,   6.108e-6
1.385,   6.149e-6
1.387,   6.270e-6
1.389,   6.364e-6
1.391,   6.487e-6
1.393,   6.565e-6
1.395,   6.717e-6
1.397,   6.892e-6
1.399,   6.989e-6
1.401,   7.183e-6
1.403,   7.353e-6
1.405,   7.565e-6
1.407,   7.786e-6
1.409,   8.039e-6
1.411,   8.309e-6
1.413,   8.659e-6
1.415,   9.000e-6
1.417,   9.394e-6
1.419,   9.787e-6
1.421,   1.030e-5
1.423,   1.080e-5
1.425,   1.139e-5
1.427,   1.214e-5
1.429,   1.286e-5
1.431,   1.359e-5
1.433,   1.450e-5
1.435,   1.552e-5
1.437,   1.667e-5
1.439,   1.788e-5
1.441,   1.920e-5
1.443,   2.076e-5
1.445,   2.247e-5
1.447,   2.438e-5
1.449,   2.654e-5
1.451,   2.871e-5
1.453,   3.145e-5
1.455,   3.424e-5
1.457,   3.744e-5
1.459,   4.083e-5
1.461,   4.486e-5
1.463,   4.908e-5
1.465,   5.376e-5
1.467,   5.887e-5
1.469,   6.471e-5
1.471,   7.070e-5
1.473,   7.780e-5
1.475,   8.550e-5
1.477,   9.391e-5
1.479,   1.027e-4
1.481,   1.124e-4
1.483,   1.229e-4
1.485,   1.348e-4
1.487,   1.476e-4
1.489,   1.615e-4
1.491,   1.762e-4
1.493,   1.915e-4
1.495,   2.088e-4
1.497,   2.265e-4
1.499,   2.462e-4
1.501,   2.672e-4
1.503,   2.897e-4
1.505,   3.122e-4
1.507,   3.365e-4
1.509,   3.641e-4
1.511,   3.922e-4
1.513,   4.218e-4
1.515,   4.520e-4
1.517,   4.830e-4
1.519,   5.145e-4
1.521,   5.474e-4
1.523,   5.832e-4
1.525,   6.175e-4
1.527,   6.519e-4
1.529,   6.895e-4
1.531,   7.287e-4
1.533,   7.654e-4
1.535,   8.071e-4
1.537,   8.438e-4
1.539,   8.826e-4
1.541,   9.243e-4
1.543,   9.645e-4
1.545,   1.006e-3
1.547,   1.043e-3
1.549,   1.084e-3
1.551,   1.129e-3
1.553,   1.178e-3
1.555,   1.225e-3
1.557,   1.272e-3
1.559,   1.321e-3
1.561,   1.367e-3
1.563,   1.422e-3
1.565,   1.478e-3
1.567,   1.530e-3
1.569,   1.585e-3
1.571,   1.640e-3
1.573,   1.694e-3
1.575,   1.758e-3
1.577,   1.824e-3
1.579,   1.883e-3
1.581,   1.944e-3
1.583,   2.002e-3
1.585,   2.069e-3
1.587,   2.151e-3
1.589,   2.212e-3
1.591,   2.280e-3
1.593,   2.357e-3
1.595,   2.438e-3
1.597,   2.562e-3
1.599,   2.737e-3
1.601,   2.852e-3
1.603,   2.888e-3
1.605,   2.956e-3
1.607,   3.028e-3
1.609,   3.089e-3
1.611,   3.174e-3
1.613,   3.277e-3
1.615,   3.344e-3
1.617,   3.392e-3
1.619,   3.481e-3
1.621,   3.579e-3
1.623,   3.646e-3
1.625,   3.675e-3
1.627,   3.711e-3
1.629,   3.807e-3
1.631,   3.870e-3
1.633,   3.936e-3
1.635,   3.929e-3
1.637,   3.964e-3
1.639,   4.024e-3
1.641,   4.042e-3
1.643,   4.057e-3
1.645,   4.119e-3
1.647,   4.189e-3
1.649,   4.185e-3
1.651,   4.322e-3
1.653,   4.639e-3
1.655,   4.631e-3
1.657,   4.566e-3
1.659,   4.576e-3
1.661,   4.567e-3
1.663,   4.556e-3
1.665,   4.615e-3
1.667,   4.589e-3
1.669,   4.550e-3
1.671,   4.582e-3
1.673,   4.702e-3
1.675,   4.650e-3
1.677,   4.677e-3
1.679,   5.104e-3
1.681,   5.129e-3
1.683,   5.014e-3
1.685,   5.051e-3
1.687,   5.022e-3
1.689,   4.977e-3
1.691,   5.051e-3
1.693,   5.072e-3
1.695,   5.007e-3
1.697,   5.041e-3
1.699,   5.052e-3
1.701,   5.080e-3
1.703,   5.016e-3
1.705,   4.988e-3
1.706,   4.968e-3

File: B4_VARIANCE_400_#8_Full(#16)-415mV.txt
Mar. 24, 2023   16:14:21
Linear Sweep Voltammetry
File: d:\current work\al_oer\electrochemical test data\batch 4\400\B4_VARIANCE_400_#8_Full(#16)-415mV.txt
Data Source:  Experiment
Instrument Model:  CHI660E
Header:
Note:

Init E (V) = 1.073

Final E (V) = 1.672

Scan Rate (V/s) = 0.010
Sample Interval (V) = 0.001
Quiet Time (sec) = 2
Sensitivity (A/V) = 0.001
Comp R (ohm) = 5.4

Results:

Channel 1:

Potential/V, Current/A
1.073,   9.129e-6
1.075,   8.533e-6
1.077,   7.819e-6
1.079,   7.227e-6
1.081,   6.728e-6
1.083,   6.327e-6
1.085,   5.983e-6
1.087,   5.702e-6
1.089,   5.445e-6
1.091,   5.235e-6
1.093,   5.052e-6
1.095,   4.897e-6
1.097,   4.734e-6
1.099,   4.621e-6
1.101,   4.493e-6
1.103,   4.359e-6
1.105,   4.293e-6
1.107,   4.229e-6
1.109,   4.091e-6
1.111,   4.027e-6
1.113,   3.949e-6
1.115,   3.866e-6
1.117,   3.855e-6
1.119,   3.796e-6
1.121,   3.712e-6
1.123,   3.687e-6
1.125,   3.640e-6
1.127,   3.608e-6
1.129,   3.580e-6
1.131,   3.543e-6
1.133,   3.506e-6
1.135,   3.484e-6
1.137,   3.453e-6
1.139,   3.444e-6
1.141,   3.415e-6
1.143,   3.374e-6
1.145,   3.375e-6
1.147,   3.377e-6
1.149,   3.339e-6
1.151,   3.314e-6
1.153,   3.301e-6
1.155,   3.312e-6
1.157,   3.300e-6
1.159,   3.311e-6
1.161,   3.252e-6
1.163,   3.266e-6
1.165,   3.269e-6
1.167,   3.250e-6
1.169,   3.245e-6
1.171,   3.255e-6
1.173,   3.223e-6
1.175,   3.253e-6
1.177,   3.212e-6
1.179,   3.198e-6
1.181,   3.199e-6
1.183,   3.222e-6
1.185,   3.200e-6
1.187,   3.216e-6
1.189,   3.183e-6
1.191,   3.182e-6
1.193,   3.160e-6
1.195,   3.219e-6
1.197,   3.184e-6
1.199,   3.194e-6
1.201,   3.178e-6
1.203,   3.185e-6
1.205,   3.201e-6
1.207,   3.161e-6
1.209,   3.219e-6
1.211,   3.171e-6
1.213,   3.191e-6
1.215,   3.177e-6
1.217,   3.160e-6
1.219,   3.159e-6
1.221,   3.193e-6
1.223,   3.162e-6
1.225,   3.206e-6
1.227,   3.160e-6
1.229,   3.160e-6
1.231,   3.165e-6
1.233,   3.176e-6
1.235,   3.177e-6
1.237,   3.170e-6
1.239,   3.154e-6
1.241,   3.173e-6
1.243,   3.162e-6
1.245,   3.192e-6
1.247,   3.175e-6
1.249,   3.161e-6
1.251,   3.177e-6
1.253,   3.185e-6
1.255,   3.182e-6
1.257,   3.197e-6
1.259,   3.184e-6
1.261,   3.188e-6
1.263,   3.210e-6
1.265,   3.208e-6
1.267,   3.204e-6
1.269,   3.206e-6
1.271,   3.208e-6
1.273,   3.244e-6
1.275,   3.274e-6
1.277,   3.254e-6
1.279,   3.287e-6
1.281,   3.251e-6
1.283,   3.293e-6
1.285,   3.274e-6
1.287,   3.311e-6
1.289,   3.298e-6
1.291,   3.322e-6
1.293,   3.310e-6
1.295,   3.347e-6
1.297,   3.352e-6
1.299,   3.364e-6
1.301,   3.400e-6
1.303,   3.409e-6
1.305,   3.409e-6
1.307,   3.443e-6
1.309,   3.459e-6
1.311,   3.474e-6
1.313,   3.488e-6
1.315,   3.512e-6
1.317,   3.529e-6
1.319,   3.561e-6
1.321,   3.605e-6
1.323,   3.607e-6
1.325,   3.633e-6
1.327,   3.671e-6
1.329,   3.657e-6
1.331,   3.692e-6
1.333,   3.704e-6
1.335,   3.790e-6
1.337,   3.821e-6
1.339,   3.830e-6
1.341,   3.848e-6
1.343,   3.878e-6
1.345,   3.895e-6
1.347,   3.951e-6
1.349,   3.990e-6
1.351,   4.037e-6
1.353,   4.062e-6
1.355,   4.106e-6
1.357,   4.161e-6
1.359,   4.184e-6
1.361,   4.293e-6
1.363,   4.316e-6
1.365,   4.375e-6
1.367,   4.469e-6
1.369,   4.525e-6
1.371,   4.614e-6
1.373,   4.676e-6
1.375,   4.785e-6
1.377,   4.899e-6
1.379,   5.011e-6
1.381,   5.169e-6
1.383,   5.268e-6
1.385,   5.456e-6
1.387,   5.630e-6
1.389,   5.812e-6
1.391,   6.039e-6
1.393,   6.314e-6
1.395,   6.561e-6
1.397,   6.870e-6
1.399,   7.223e-6
1.401,   7.590e-6
1.403,   8.015e-6
1.405,   8.424e-6
1.407,   8.982e-6
1.409,   9.571e-6
1.411,   1.020e-5
1.413,   1.092e-5
1.415,   1.175e-5
1.417,   1.264e-5
1.419,   1.364e-5
1.421,   1.477e-5
1.423,   1.601e-5
1.425,   1.734e-5
1.427,   1.888e-5
1.429,   2.061e-5
1.431,   2.245e-5
1.433,   2.457e-5
1.435,   2.687e-5
1.437,   2.932e-5
1.439,   3.211e-5
1.441,   3.518e-5
1.443,   3.837e-5
1.445,   4.206e-5
1.447,   4.614e-5
1.449,   5.058e-5
1.451,   5.541e-5
1.453,   6.059e-5
1.455,   6.623e-5
1.457,   7.231e-5
1.459,   7.901e-5
1.461,   8.610e-5
1.463,   9.369e-5
1.465,   1.018e-4
1.467,   1.105e-4
1.469,   1.196e-4
1.471,   1.295e-4
1.473,   1.399e-4
1.475,   1.508e-4
1.477,   1.629e-4
1.479,   1.751e-4
1.481,   1.879e-4
1.483,   2.009e-4
1.485,   2.147e-4
1.487,   2.288e-4
1.489,   2.434e-4
1.491,   2.585e-4
1.493,   2.738e-4
1.495,   2.895e-4
1.497,   3.056e-4
1.499,   3.221e-4
1.501,   3.386e-4
1.503,   3.556e-4
1.505,   3.727e-4
1.507,   3.902e-4
1.509,   4.078e-4
1.511,   4.254e-4
1.513,   4.432e-4
1.515,   4.611e-4
1.517,   4.797e-4
1.519,   4.981e-4
1.521,   5.166e-4
1.523,   5.360e-4
1.525,   5.554e-4
1.527,   5.748e-4
1.529,   5.952e-4
1.531,   6.161e-4
1.533,   6.371e-4
1.535,   6.580e-4
1.537,   6.805e-4
1.539,   7.036e-4
1.541,   7.269e-4
1.543,   7.497e-4
1.545,   7.727e-4
1.547,   7.962e-4
1.549,   8.209e-4
1.551,   8.459e-4
1.553,   8.711e-4
1.555,   8.975e-4
1.557,   9.236e-4
1.559,   9.545e-4
1.561,   9.850e-4
1.563,   1.012e-3
1.565,   1.039e-3
1.567,   1.065e-3
1.569,   1.092e-3
1.571,   1.119e-3
1.573,   1.145e-3
1.575,   1.173e-3
1.577,   1.201e-3
1.579,   1.230e-3
1.581,   1.243e-3
1.583,   1.278e-3
1.585,   1.306e-3
1.587,   1.335e-3
1.589,   1.362e-3
1.591,   1.389e-3
1.593,   1.416e-3
1.595,   1.441e-3
1.597,   1.466e-3
1.599,   1.489e-3
1.601,   1.512e-3
1.603,   1.541e-3
1.605,   1.561e-3
1.607,   1.584e-3
1.609,   1.606e-3
1.611,   1.630e-3
1.613,   1.649e-3
1.615,   1.675e-3
1.617,   1.696e-3
1.619,   1.727e-3
1.621,   1.749e-3
1.623,   1.767e-3
1.625,   1.782e-3
1.627,   1.798e-3
1.629,   1.834e-3
1.631,   1.854e-3
1.633,   1.869e-3
1.635,   1.888e-3
1.637,   1.904e-3
1.639,   1.918e-3
1.641,   1.930e-3
1.643,   1.942e-3
1.645,   1.957e-3
1.647,   1.970e-3
1.649,   1.982e-3
1.651,   1.996e-3
1.653,   2.005e-3
1.655,   2.018e-3
1.657,   2.030e-3
1.659,   2.045e-3
1.661,   2.084e-3
1.663,   2.087e-3
1.665,   2.104e-3
1.667,   2.110e-3
1.669,   2.116e-3
1.671,   2.123e-3
1.672,   2.127e-3

File: B4_VARIANCE_400_#8_High_Quality(#32)-201mV.txt
Mar. 28, 2023   15:42:27
Linear Sweep Voltammetry
File: d:\current work\al_oer\electrochemical test data\batch 4\400\B4_VARIANCE_400_#8_High_Quality(#32)-201mV.txt
Data Source:  Experiment
Instrument Model:  CHI660E
Header:
Note:

Init E (V) = 1.037

Final E (V) = 1.436

Scan Rate (V/s) = 0.010
Sample Interval (V) = 0.001
Quiet Time (sec) = 2
Sensitivity (A/V) = 0.001

Results:

Channel 1:

Potential/V, Current/A
1.037,   1.301e-6
1.039,   8.905e-6
1.041,   9.611e-6
1.043,   1.010e-5
1.045,   1.061e-5
1.047,   1.096e-5
1.049,   1.126e-5
1.051,   1.156e-5
1.053,   1.179e-5
1.055,   1.214e-5
1.057,   1.242e-5
1.059,   1.255e-5
1.061,   1.275e-5
1.063,   1.299e-5
1.065,   1.323e-5
1.067,   1.337e-5
1.069,   1.356e-5
1.071,   1.389e-5
1.073,   1.405e-5
1.075,   1.415e-5
1.077,   1.437e-5
1.079,   1.460e-5
1.081,   1.479e-5
1.083,   1.500e-5
1.085,   1.519e-5
1.087,   1.543e-5
1.089,   1.563e-5
1.091,   1.577e-5
1.093,   1.595e-5
1.095,   1.623e-5
1.097,   1.645e-5
1.099,   1.659e-5
1.101,   1.675e-5
1.103,   1.711e-5
1.105,   1.724e-5
1.107,   1.742e-5
1.109,   1.774e-5
1.111,   1.794e-5
1.113,   1.815e-5
1.115,   1.832e-5
1.117,   1.845e-5
1.119,   1.882e-5
1.121,   1.902e-5
1.123,   1.913e-5
1.125,   1.933e-5
1.127,   1.964e-5
1.129,   1.985e-5
1.131,   2.004e-5
1.133,   2.020e-5
1.135,   2.053e-5
1.137,   2.071e-5
1.139,   2.088e-5
1.141,   2.106e-5
1.143,   2.131e-5
1.145,   2.145e-5
1.147,   2.171e-5
1.149,   2.177e-5
1.151,   2.204e-5
1.153,   2.226e-5
1.155,   2.233e-5
1.157,   2.252e-5
1.159,   2.271e-5
1.161,   2.288e-5
1.163,   2.297e-5
1.165,   2.302e-5
1.167,   2.332e-5
1.169,   2.344e-5
1.171,   2.342e-5
1.173,   2.367e-5
1.175,   2.379e-5
1.177,   2.390e-5
1.179,   2.392e-5
1.181,   2.388e-5
1.183,   2.409e-5
1.185,   2.424e-5
1.187,   2.420e-5
1.189,   2.423e-5
1.191,   2.438e-5
1.193,   2.450e-5
1.195,   2.445e-5
1.197,   2.444e-5
1.199,   2.470e-5
1.201,   2.462e-5
1.203,   2.459e-5
1.205,   2.464e-5
1.207,   2.478e-5
1.209,   2.477e-5
1.211,   2.486e-5
1.213,   2.474e-5
1.215,   2.486e-5
1.217,   2.490e-5
1.219,   2.485e-5
1.221,   2.486e-5
1.223,   2.497e-5
1.225,   2.501e-5
1.227,   2.491e-5
1.229,   2.493e-5
1.231,   2.511e-5
1.233,   2.513e-5
1.235,   2.503e-5
1.237,   2.518e-5
1.239,   2.521e-5
1.241,   2.529e-5
1.243,   2.528e-5
1.245,   2.524e-5
1.247,   2.544e-5
1.249,   2.553e-5
1.251,   2.548e-5
1.253,   2.557e-5
1.255,   2.573e-5
1.257,   2.583e-5
1.259,   2.592e-5
1.261,   2.595e-5
1.263,   2.636e-5
1.265,   2.633e-5
1.267,   2.636e-5
1.269,   2.661e-5
1.271,   2.680e-5
1.273,   2.703e-5
1.275,   2.724e-5
1.277,   2.732e-5
1.279,   2.766e-5
1.281,   2.794e-5
1.283,   2.811e-5
1.285,   2.842e-5
1.287,   2.881e-5
1.289,   2.924e-5
1.291,   2.947e-5
1.293,   2.985e-5
1.295,   3.051e-5
1.297,   3.096e-5
1.299,   3.141e-5
1.301,   3.210e-5
1.303,   3.276e-5
1.305,   3.341e-5
1.307,   3.413e-5
1.309,   3.487e-5
1.311,   3.598e-5
1.313,   3.694e-5
1.315,   3.780e-5
1.317,   3.892e-5
1.319,   4.037e-5
1.321,   4.186e-5
1.323,   4.326e-5
1.325,   4.492e-5
1.327,   4.712e-5
1.329,   4.913e-5
1.331,   5.138e-5
1.333,   5.389e-5
1.335,   5.677e-5
1.337,   5.988e-5
1.339,   6.337e-5
1.341,   6.705e-5
1.343,   7.127e-5
1.345,   7.615e-5
1.347,   8.111e-5
1.349,   8.675e-5
1.351,   9.313e-5
1.353,   1.001e-4
1.355,   1.074e-4
1.357,   1.157e-4
1.359,   1.251e-4
1.361,   1.351e-4
1.363,   1.460e-4
1.365,   1.583e-4
1.367,   1.718e-4
1.369,   1.862e-4
1.371,   2.019e-4
1.373,   2.192e-4
1.375,   2.385e-4
1.377,   2.590e-4
1.379,   2.814e-4
1.381,   3.058e-4
1.383,   3.322e-4
1.385,   3.609e-4
1.387,   3.921e-4
1.389,   4.250e-4
1.391,   4.615e-4
1.393,   4.999e-4
1.395,   5.413e-4
1.397,   5.859e-4
1.399,   6.338e-4
1.401,   6.845e-4
1.403,   7.385e-4
1.405,   7.962e-4
1.407,   8.569e-4
1.409,   9.215e-4
1.411,   9.901e-4
1.413,   1.062e-3
1.415,   1.138e-3
1.417,   1.218e-3
1.419,   1.304e-3
1.421,   1.392e-3
1.423,   1.484e-3
1.425,   1.581e-3
1.427,   1.679e-3
1.429,   1.783e-3
1.431,   1.894e-3
1.433,   2.007e-3
1.435,   2.124e-3
1.436,   2.182e-3