Folder: DASH/Experimental Records, Raw Data, and Supplementary Notes and Figures/batch4/final400 (part 2)

File: B4_BEST_400_#6_High_Quality(#22)-220mV.txt
Mar. 26, 2023   15:45:32
Linear Sweep Voltammetry
File: d:\current work\al_oer\electrochemical test data\batch 4\400\B4_BEST_400_#6_High_Quality(#22)-220mV.txt
Data Source:  Experiment
Instrument Model:  CHI660E
Header:
Note:

Init E (V) = 1.067

Final E (V) = 1.466

Scan Rate (V/s) = 0.010
Sample Interval (V) = 0.001
Quiet Time (sec) = 2
Sensitivity (A/V) = 0.001
Comp R (ohm) = 5.1

Results:

Channel 1:

Potential/V, Current/A
1.067,   4.105e-5
1.069,   4.278e-5
1.071,   3.930e-5
1.073,   3.676e-5
1.075,   3.468e-5
1.077,   3.295e-5
1.079,   3.146e-5
1.081,   3.030e-5
1.083,   2.930e-5
1.085,   2.853e-5
1.087,   2.781e-5
1.089,   2.715e-5
1.091,   2.660e-5
1.093,   2.625e-5
1.095,   2.584e-5
1.097,   2.543e-5
1.099,   2.516e-5
1.101,   2.504e-5
1.103,   2.475e-5
1.105,   2.456e-5
1.107,   2.445e-5
1.109,   2.441e-5
1.111,   2.428e-5
1.113,   2.421e-5
1.115,   2.415e-5
1.117,   2.421e-5
1.119,   2.414e-5
1.121,   2.411e-5
1.123,   2.412e-5
1.125,   2.424e-5
1.127,   2.428e-5
1.129,   2.431e-5
1.131,   2.432e-5
1.133,   2.457e-5
1.135,   2.459e-5
1.137,   2.462e-5
1.139,   2.483e-5
1.141,   2.496e-5
1.143,   2.505e-5
1.145,   2.514e-5
1.147,   2.521e-5
1.149,   2.544e-5
1.151,   2.559e-5
1.153,   2.557e-5
1.155,   2.574e-5
1.157,   2.592e-5
1.159,   2.612e-5
1.161,   2.614e-5
1.163,   2.625e-5
1.165,   2.657e-5
1.167,   2.665e-5
1.169,   2.669e-5
1.171,   2.682e-5
1.173,   2.704e-5
1.175,   2.710e-5
1.177,   2.720e-5
1.179,   2.724e-5
1.181,   2.744e-5
1.183,   2.757e-5
1.185,   2.749e-5
1.187,   2.768e-5
1.189,   2.786e-5
1.191,   2.789e-5
1.193,   2.794e-5
1.195,   2.791e-5
1.197,   2.816e-5
1.199,   2.820e-5
1.201,   2.818e-5
1.203,   2.833e-5
1.205,   2.842e-5
1.207,   2.837e-5
1.209,   2.842e-5
1.211,   2.836e-5
1.213,   2.858e-5
1.215,   2.855e-5
1.217,   2.844e-5
1.219,   2.853e-5
1.221,   2.864e-5
1.223,   2.861e-5
1.225,   2.853e-5
1.227,   2.857e-5
1.229,   2.877e-5
1.231,   2.869e-5
1.233,   2.863e-5
1.235,   2.868e-5
1.237,   2.876e-5
1.239,   2.871e-5
1.241,   2.874e-5
1.243,   2.866e-5
1.245,   2.883e-5
1.247,   2.877e-5
1.249,   2.871e-5
1.251,   2.875e-5
1.253,   2.886e-5
1.255,   2.888e-5
1.257,   2.878e-5
1.259,   2.884e-5
1.261,   2.904e-5
1.263,   2.901e-5
1.265,   2.890e-5
1.267,   2.908e-5
1.269,   2.923e-5
1.271,   2.921e-5
1.273,   2.924e-5
1.275,   2.924e-5
1.277,   2.950e-5
1.279,   2.954e-5
1.281,   2.952e-5
1.283,   2.972e-5
1.285,   2.988e-5
1.287,   2.994e-5
1.289,   3.008e-5
1.291,   3.022e-5
1.293,   3.063e-5
1.295,   3.071e-5
1.297,   3.078e-5
1.299,   3.101e-5
1.301,   3.130e-5
1.303,   3.156e-5
1.305,   3.186e-5
1.307,   3.202e-5
1.309,   3.248e-5
1.311,   3.279e-5
1.313,   3.301e-5
1.315,   3.345e-5
1.317,   3.400e-5
1.319,   3.447e-5
1.321,   3.488e-5
1.323,   3.543e-5
1.325,   3.613e-5
1.327,   3.675e-5
1.329,   3.729e-5
1.331,   3.805e-5
1.333,   3.892e-5
1.335,   3.971e-5
1.337,   4.063e-5
1.339,   4.160e-5
1.341,   4.304e-5
1.343,   4.418e-5
1.345,   4.539e-5
1.347,   4.681e-5
1.349,   4.873e-5
1.351,   5.033e-5
1.353,   5.214e-5
1.355,   5.428e-5
1.357,   5.684e-5
1.359,   5.922e-5
1.361,   6.192e-5
1.363,   6.505e-5
1.365,   6.852e-5
1.367,   7.207e-5
1.369,   7.625e-5
1.371,   8.056e-5
1.373,   8.569e-5
1.375,   9.091e-5
1.377,   9.674e-5
1.379,   1.031e-4
1.381,   1.104e-4
1.383,   1.183e-4
1.385,   1.266e-4
1.387,   1.361e-4
1.389,   1.468e-4
1.391,   1.582e-4
1.393,   1.706e-4
1.395,   1.845e-4
1.397,   2.000e-4
1.399,   2.164e-4
1.401,   2.350e-4
1.403,   2.550e-4
1.405,   2.777e-4
1.407,   3.019e-4
1.409,   3.288e-4
1.411,   3.582e-4
1.413,   3.907e-4
1.415,   4.260e-4
1.417,   4.648e-4
1.419,   5.070e-4
1.421,   5.536e-4
1.423,   6.042e-4
1.425,   6.590e-4
1.427,   7.189e-4
1.429,   7.852e-4
1.431,   8.549e-4
1.433,   9.318e-4
1.435,   1.015e-3
1.437,   1.106e-3
1.439,   1.204e-3
1.441,   1.309e-3
1.443,   1.426e-3
1.445,   1.548e-3
1.447,   1.679e-3
1.449,   1.822e-3
1.451,   1.975e-3
1.453,   2.141e-3
1.455,   2.318e-3
1.457,   2.498e-3
1.459,   2.694e-3
1.461,   2.916e-3
1.463,   3.142e-3
1.465,   3.367e-3
1.466,   3.497e-3

File: B4_BEST_400_#7_Full-233mV.txt
Nov. 30, 2022   14:31:48
Linear Sweep Voltammetry
File: d:\current work\al_oer\electrochemical test data\batch 4\400\B4_BEST_400_#7_Full-233mV.txt
Data Source:  Experiment
Instrument Model:  CHI660E
Header:
Note:

Init E (V) = 1.097

Final E (V) = 1.596

Scan Rate (V/s) = 0.010
Sample Interval (V) = 0.001
Quiet Time (sec) = 2
Sensitivity (A/V) = 0.001
Comp R (ohm) = 7.4

Results:

Channel 1:
Ep = 1.312V
ip = 1.004e-2A
Ah = 5.301e-2C

Potential/V, Current/A
1.097,   2.423e-5
1.099,   2.420e-5
1.101,   2.200e-5
1.103,   2.023e-5
1.105,   1.884e-5
1.107,   1.773e-5
1.109,   1.674e-5
1.111,   1.595e-5
1.113,   1.528e-5
1.115,   1.474e-5
1.117,   1.428e-5
1.119,   1.379e-5
1.121,   1.348e-5
1.123,   1.314e-5
1.125,   1.287e-5
1.127,   1.262e-5
1.129,   1.239e-5
1.131,   1.226e-5
1.133,   1.205e-5
1.135,   1.188e-5
1.137,   1.174e-5
1.139,   1.165e-5
1.141,   1.149e-5
1.143,   1.141e-5
1.145,   1.130e-5
1.147,   1.126e-5
1.149,   1.115e-5
1.151,   1.116e-5
1.153,   1.101e-5
1.155,   1.104e-5
1.157,   1.097e-5
1.159,   1.091e-5
1.161,   1.088e-5
1.163,   1.088e-5
1.165,   1.083e-5
1.167,   1.083e-5
1.169,   1.083e-5
1.171,   1.086e-5
1.173,   1.079e-5
1.175,   1.078e-5
1.177,   1.080e-5
1.179,   1.080e-5
1.181,   1.081e-5
1.183,   1.080e-5
1.185,   1.082e-5
1.187,   1.082e-5
1.189,   1.083e-5
1.191,   1.086e-5
1.193,   1.085e-5
1.195,   1.091e-5
1.197,   1.090e-5
1.199,   1.093e-5
1.201,   1.092e-5
1.203,   1.098e-5
1.205,   1.094e-5
1.207,   1.100e-5
1.209,   1.097e-5
1.211,   1.105e-5
1.213,   1.105e-5
1.215,   1.104e-5
1.217,   1.106e-5
1.219,   1.112e-5
1.221,   1.117e-5
1.223,   1.114e-5
1.225,   1.113e-5
1.227,   1.125e-5
1.229,   1.122e-5
1.231,   1.123e-5
1.233,   1.126e-5
1.235,   1.129e-5
1.237,   1.130e-5
1.239,   1.135e-5
1.241,   1.133e-5
1.243,   1.136e-5
1.245,   1.147e-5
1.247,   1.139e-5
1.249,   1.145e-5
1.251,   1.152e-5
1.253,   1.153e-5
1.255,   1.155e-5
1.257,   1.154e-5
1.259,   1.166e-5
1.261,   1.164e-5
1.263,   1.166e-5
1.265,   1.171e-5
1.267,   1.176e-5
1.269,   1.177e-5
1.271,   1.180e-5
1.273,   1.182e-5
1.275,   1.192e-5
1.277,   1.197e-5
1.279,   1.197e-5
1.281,   1.200e-5
1.283,   1.209e-5
1.285,   1.213e-5
1.287,   1.219e-5
1.289,   1.220e-5
1.291,   1.233e-5
1.293,   1.237e-5
1.295,   1.240e-5
1.297,   1.249e-5
1.299,   1.260e-5
1.301,   1.264e-5
1.303,   1.274e-5
1.305,   1.277e-5
1.307,   1.293e-5
1.309,   1.301e-5
1.311,   1.306e-5
1.313,   1.316e-5
1.315,   1.331e-5
1.317,   1.344e-5
1.319,   1.352e-5
1.321,   1.363e-5
1.323,   1.386e-5
1.325,   1.396e-5
1.327,   1.410e-5
1.329,   1.427e-5
1.331,   1.444e-5
1.333,   1.466e-5
1.335,   1.491e-5
1.337,   1.506e-5
1.339,   1.538e-5
1.341,   1.557e-5
1.343,   1.588e-5
1.345,   1.619e-5
1.347,   1.658e-5
1.349,   1.694e-5
1.351,   1.728e-5
1.353,   1.776e-5
1.355,   1.828e-5
1.357,   1.878e-5
1.359,   1.940e-5
1.361,   2.017e-5
1.363,   2.088e-5
1.365,   2.170e-5
1.367,   2.260e-5
1.369,   2.372e-5
1.371,   2.495e-5
1.373,   2.632e-5
1.375,   2.782e-5
1.377,   2.953e-5
1.379,   3.158e-5
1.381,   3.383e-5
1.383,   3.637e-5
1.385,   3.922e-5
1.387,   4.261e-5
1.389,   4.640e-5
1.391,   5.069e-5
1.393,   5.567e-5
1.395,   6.128e-5
1.397,   6.768e-5
1.399,   7.502e-5
1.401,   8.328e-5
1.403,   9.273e-5
1.405,   1.032e-4
1.407,   1.151e-4
1.409,   1.285e-4
1.411,   1.436e-4
1.413,   1.606e-4
1.415,   1.793e-4
1.417,   2.001e-4
1.419,   2.236e-4
1.421,   2.494e-4
1.423,   2.780e-4
1.425,   3.094e-4
1.427,   3.443e-4
1.429,   3.823e-4
1.431,   4.244e-4
1.433,   4.703e-4
1.435,   5.202e-4
1.437,   5.751e-4
1.439,   6.341e-4
1.441,   6.991e-4
1.443,   7.683e-4
1.445,   8.438e-4
1.447,   9.251e-4
1.449,   1.012e-3
1.451,   1.106e-3
1.453,   1.206e-3
1.455,   1.340e-3
1.457,   1.450e-3
1.459,   1.573e-3
1.461,   1.701e-3
1.463,   1.835e-3
1.465,   2.026e-3
1.467,   2.187e-3
1.469,   2.343e-3
1.471,   2.561e-3
1.473,   2.724e-3
1.475,   2.932e-3
1.477,   3.206e-3
1.479,   3.432e-3
1.481,   3.722e-3
1.483,   4.047e-3
1.485,   4.182e-3
1.487,   4.705e-3
1.489,   5.052e-3
1.491,   5.363e-3
1.493,   5.715e-3
1.495,   6.379e-3
1.497,   6.667e-3
1.499,   7.517e-3
1.501,   7.834e-3
1.503,   8.616e-3
1.505,   8.967e-3
1.507,   9.994e-3
1.509,   1.006e-2
1.511,   1.006e-2
1.513,   1.006e-2
1.515,   1.006e-2
1.517,   1.006e-2
1.519,   1.006e-2
1.521,   1.006e-2
1.523,   1.006e-2
1.525,   1.006e-2
1.527,   1.006e-2
1.529,   1.006e-2
1.531,   1.006e-2
1.533,   1.006e-2
1.535,   1.006e-2
1.537,   1.006e-2
1.539,   1.006e-2
1.541,   1.006e-2
1.543,   1.006e-2
1.545,   1.006e-2
1.547,   1.006e-2
1.549,   1.006e-2
1.551,   1.006e-2
1.553,   1.006e-2
1.555,   1.006e-2
1.557,   1.006e-2
1.559,   1.006e-2
1.561,   1.006e-2
1.563,   1.006e-2
1.565,   1.006e-2
1.567,   1.006e-2
1.569,   1.006e-2
1.571,   1.006e-2
1.573,   1.006e-2
1.575,   1.006e-2
1.577,   1.006e-2
1.579,   1.006e-2
1.581,   1.006e-2
1.583,   1.006e-2
1.585,   1.006e-2
1.587,   1.006e-2
1.589,   1.006e-2
1.591,   1.006e-2
1.593,   1.006e-2
1.595,   1.006e-2
1.596,   1.006e-2

File: B4_BEST_400_#8_Full-212mV.txt
Mar. 27, 2023   16:46:41
Linear Sweep Voltammetry
File: d:\current work\al_oer\electrochemical test data\batch 4\400\B4_BEST_400_#8_Full-212mV.txt
Data Source:  Experiment
Instrument Model:  CHI660E
Header:
Note:

Init E (V) = 1.080

Final E (V) = 1.479

Scan Rate (V/s) = 0.010
Sample Interval (V) = 0.001
Quiet Time (sec) = 2
Sensitivity (A/V) = 0.001
Comp R (ohm) = 6.5

Results:

Channel 1:

Potential/V, Current/A
1.080,   1.520e-4
1.082,   1.423e-4
1.084,   1.286e-4
1.086,   1.174e-4
1.088,   1.093e-4
1.090,   1.018e-4
1.092,   9.533e-5
1.094,   9.033e-5
1.096,   8.606e-5
1.098,   8.253e-5
1.100,   7.851e-5
1.102,   7.499e-5
1.104,   7.218e-5
1.106,   6.998e-5
1.108,   6.779e-5
1.110,   6.758e-5
1.112,   6.451e-5
1.114,   6.280e-5
1.116,   6.116e-5
1.118,   5.970e-5
1.120,   5.854e-5
1.122,   5.767e-5
1.124,   5.669e-5
1.126,   5.580e-5
1.128,   5.514e-5
1.130,   5.434e-5
1.132,   5.359e-5
1.134,   5.291e-5
1.136,   5.230e-5
1.138,   5.196e-5
1.140,   5.141e-5
1.142,   5.091e-5
1.144,   5.058e-5
1.146,   5.049e-5
1.148,   5.008e-5
1.150,   4.984e-5
1.152,   4.976e-5
1.154,   4.942e-5
1.156,   4.913e-5
1.158,   4.899e-5
1.160,   4.868e-5
1.162,   4.876e-5
1.164,   4.865e-5
1.166,   4.847e-5
1.168,   4.834e-5
1.170,   4.844e-5
1.172,   4.841e-5
1.174,   4.832e-5
1.176,   4.833e-5
1.178,   4.833e-5
1.180,   4.828e-5
1.182,   4.822e-5
1.184,   4.820e-5
1.186,   4.829e-5
1.188,   4.826e-5
1.190,   4.826e-5
1.192,   4.823e-5
1.194,   4.834e-5
1.196,   4.825e-5
1.198,   4.825e-5
1.200,   4.825e-5
1.202,   4.839e-5
1.204,   4.849e-5
1.206,   4.839e-5
1.208,   4.833e-5
1.210,   4.836e-5
1.212,   4.833e-5
1.214,   4.825e-5
1.216,   4.838e-5
1.218,   4.843e-5
1.220,   4.854e-5
1.222,   4.846e-5
1.224,   4.838e-5
1.226,   4.839e-5
1.228,   4.842e-5
1.230,   4.842e-5
1.232,   4.819e-5
1.234,   4.830e-5
1.236,   4.817e-5
1.238,   4.801e-5
1.240,   4.797e-5
1.242,   4.809e-5
1.244,   4.796e-5
1.246,   4.787e-5
1.248,   4.787e-5
1.250,   4.788e-5
1.252,   4.781e-5
1.254,   4.764e-5
1.256,   4.750e-5
1.258,   4.775e-5
1.260,   4.761e-5
1.262,   4.742e-5
1.264,   4.742e-5
1.266,   4.747e-5
1.268,   4.753e-5
1.270,   4.735e-5
1.272,   4.730e-5
1.274,   4.749e-5
1.276,   4.741e-5
1.278,   4.727e-5
1.280,   4.734e-5
1.282,   4.752e-5
1.284,   4.740e-5
1.286,   4.742e-5
1.288,   4.736e-5
1.290,   4.753e-5
1.292,   4.757e-5
1.294,   4.757e-5
1.296,   4.764e-5
1.298,   4.781e-5
1.300,   4.797e-5
1.302,   4.792e-5
1.304,   4.803e-5
1.306,   4.842e-5
1.308,   4.844e-5
1.310,   4.873e-5
1.312,   4.892e-5
1.314,   4.915e-5
1.316,   4.934e-5
1.318,   4.968e-5
1.320,   4.990e-5
1.322,   5.041e-5
1.324,   5.082e-5
1.326,   5.109e-5
1.328,   5.173e-5
1.330,   5.222e-5
1.332,   5.295e-5
1.334,   5.363e-5
1.336,   5.421e-5
1.338,   5.522e-5
1.340,   5.605e-5
1.342,   5.710e-5
1.344,   5.859e-5
1.346,   5.956e-5
1.348,   6.078e-5
1.350,   6.239e-5
1.352,   6.408e-5
1.354,   6.618e-5
1.356,   6.839e-5
1.358,   7.070e-5
1.360,   7.338e-5
1.362,   7.667e-5
1.364,   8.030e-5
1.366,   8.387e-5
1.368,   8.813e-5
1.370,   9.322e-5
1.372,   9.843e-5
1.374,   1.045e-4
1.376,   1.112e-4
1.378,   1.189e-4
1.380,   1.276e-4
1.382,   1.372e-4
1.384,   1.476e-4
1.386,   1.597e-4
1.388,   1.728e-4
1.390,   1.873e-4
1.392,   2.034e-4
1.394,   2.234e-4
1.396,   2.421e-4
1.398,   2.641e-4
1.400,   2.885e-4
1.402,   3.156e-4
1.404,   3.453e-4
1.406,   3.780e-4
1.408,   4.138e-4
1.410,   4.537e-4
1.412,   4.977e-4
1.414,   5.450e-4
1.416,   5.962e-4
1.418,   6.532e-4
1.420,   7.163e-4
1.422,   7.836e-4
1.424,   8.569e-4
1.426,   9.385e-4
1.428,   1.027e-3
1.430,   1.120e-3
1.432,   1.226e-3
1.434,   1.336e-3
1.436,   1.461e-3
1.438,   1.588e-3
1.440,   1.731e-3
1.442,   1.885e-3
1.444,   2.049e-3
1.446,   2.225e-3
1.448,   2.413e-3
1.450,   2.618e-3
1.452,   2.829e-3
1.454,   3.062e-3
1.456,   3.303e-3
1.458,   3.566e-3
1.460,   3.844e-3
1.462,   4.142e-3
1.464,   4.453e-3
1.466,   4.782e-3
1.468,   5.146e-3
1.470,   5.527e-3
1.472,   5.955e-3
1.474,   6.455e-3
1.476,   6.928e-3
1.478,   7.771e-3
1.479,   8.245e-3

File: B4_BEST_400_#8_High_Quality(#24)-209mV.txt
Mar. 28, 2023   14:10:28
Linear Sweep Voltammetry
File: d:\current work\al_oer\electrochemical test data\batch 4\400\B4_BEST_400_#8_High_Quality(#24)-209mV.txt
Data Source:  Experiment
Instrument Model:  CHI660E
Header:
Note:

Init E (V) = 1.051

Final E (V) = 1.550

Scan Rate (V/s) = 0.010
Sample Interval (V) = 0.001
Quiet Time (sec) = 2
Sensitivity (A/V) = 0.001
Comp R (ohm) = 5.1

Results:

Channel 1:

Potential/V, Current/A
1.051,   4.083e-5
1.053,   4.033e-5
1.055,   3.683e-5
1.057,   3.399e-5
1.059,   3.174e-5
1.061,   2.992e-5
1.063,   2.840e-5
1.065,   2.711e-5
1.067,   2.600e-5
1.069,   2.514e-5
1.071,   2.437e-5
1.073,   2.360e-5
1.075,   2.297e-5
1.077,   2.253e-5
1.079,   2.202e-5
1.081,   2.160e-5
1.083,   2.124e-5
1.085,   2.100e-5
1.087,   2.071e-5
1.089,   2.042e-5
1.091,   2.026e-5
1.093,   2.010e-5
1.095,   1.993e-5
1.097,   1.978e-5
1.099,   1.963e-5
1.101,   1.957e-5
1.103,   1.950e-5
1.105,   1.940e-5
1.107,   1.936e-5
1.109,   1.933e-5
1.111,   1.932e-5
1.113,   1.928e-5
1.115,   1.923e-5
1.117,   1.934e-5
1.119,   1.928e-5
1.121,   1.928e-5
1.123,   1.937e-5
1.125,   1.940e-5
1.127,   1.940e-5
1.129,   1.944e-5
1.131,   1.946e-5
1.133,   1.960e-5
1.135,   1.964e-5
1.137,   1.962e-5
1.139,   1.968e-5
1.141,   1.980e-5
1.143,   1.977e-5
1.145,   1.982e-5
1.147,   1.984e-5
1.149,   1.998e-5
1.151,   2.003e-5
1.153,   1.999e-5
1.155,   2.007e-5
1.157,   2.015e-5
1.159,   2.016e-5
1.161,   2.020e-5
1.163,   2.018e-5
1.165,   2.029e-5
1.167,   2.027e-5
1.169,   2.027e-5
1.171,   2.026e-5
1.173,   2.037e-5
1.175,   2.037e-5
1.177,   2.031e-5
1.179,   2.031e-5
1.181,   2.040e-5
1.183,   2.035e-5
1.185,   2.031e-5
1.187,   2.040e-5
1.189,   2.039e-5
1.191,   2.036e-5
1.193,   2.033e-5
1.195,   2.029e-5
1.197,   2.032e-5
1.199,   2.033e-5
1.201,   2.025e-5
1.203,   2.022e-5
1.205,   2.026e-5
1.207,   2.023e-5
1.209,   2.018e-5
1.211,   2.019e-5
1.213,   2.026e-5
1.215,   2.018e-5
1.217,   2.011e-5
1.219,   2.013e-5
1.221,   2.014e-5
1.223,   2.014e-5
1.225,   2.010e-5
1.227,   2.010e-5
1.229,   2.012e-5
1.231,   2.009e-5
1.233,   2.003e-5
1.235,   2.007e-5
1.237,   2.014e-5
1.239,   2.013e-5
1.241,   2.008e-5
1.243,   2.004e-5
1.245,   2.020e-5
1.247,   2.019e-5
1.249,   2.012e-5
1.251,   2.023e-5
1.253,   2.026e-5
1.255,   2.027e-5
1.257,   2.027e-5
1.259,   2.031e-5
1.261,   2.047e-5
1.263,   2.050e-5
1.265,   2.048e-5
1.267,   2.057e-5
1.269,   2.072e-5
1.271,   2.077e-5
1.273,   2.081e-5
1.275,   2.090e-5
1.277,   2.110e-5
1.279,   2.116e-5
1.281,   2.126e-5
1.283,   2.139e-5
1.285,   2.160e-5
1.287,   2.170e-5
1.289,   2.185e-5
1.291,   2.194e-5
1.293,   2.225e-5
1.295,   2.240e-5
1.297,   2.252e-5
1.299,   2.280e-5
1.301,   2.307e-5
1.303,   2.328e-5
1.305,   2.352e-5
1.307,   2.378e-5
1.309,   2.423e-5
1.311,   2.450e-5
1.313,   2.481e-5
1.315,   2.529e-5
1.317,   2.570e-5
1.319,   2.614e-5
1.321,   2.662e-5
1.323,   2.709e-5
1.325,   2.779e-5
1.327,   2.847e-5
1.329,   2.906e-5
1.331,   2.992e-5
1.333,   3.087e-5
1.335,   3.181e-5
1.337,   3.280e-5
1.339,   3.397e-5
1.341,   3.547e-5
1.343,   3.685e-5
1.345,   3.824e-5
1.347,   4.007e-5
1.349,   4.215e-5
1.351,   4.428e-5
1.353,   4.676e-5
1.355,   4.945e-5
1.357,   5.266e-5
1.359,   5.607e-5
1.361,   5.962e-5
1.363,   6.393e-5
1.365,   6.866e-5
1.367,   7.391e-5
1.369,   7.978e-5
1.371,   8.614e-5
1.373,   9.350e-5
1.375,   1.014e-4
1.377,   1.101e-4
1.379,   1.200e-4
1.381,   1.309e-4
1.383,   1.429e-4
1.385,   1.561e-4
1.387,   1.709e-4
1.389,   1.873e-4
1.391,   2.052e-4
1.393,   2.252e-4
1.395,   2.471e-4
1.397,   2.716e-4
1.399,   2.985e-4
1.401,   3.281e-4
1.403,   3.606e-4
1.405,   3.971e-4
1.407,   4.366e-4
1.409,   4.801e-4
1.411,   5.283e-4
1.413,   5.811e-4
1.415,   6.388e-4
1.417,   7.021e-4
1.419,   7.715e-4
1.421,   8.477e-4
1.423,   9.307e-4
1.425,   1.021e-3
1.427,   1.120e-3
1.429,   1.225e-3
1.431,   1.341e-3
1.433,   1.466e-3
1.435,   1.599e-3
1.437,   1.742e-3
1.439,   1.897e-3
1.441,   2.061e-3
1.443,   2.238e-3
1.445,   2.431e-3
1.447,   2.632e-3
1.449,   2.837e-3
1.451,   3.043e-3
1.453,   3.284e-3
1.455,   3.524e-3
1.457,   3.792e-3
1.459,   4.069e-3
1.461,   4.346e-3
1.463,   4.621e-3
1.465,   4.925e-3
1.467,   5.228e-3
1.469,   5.536e-3
1.471,   5.884e-3
1.473,   6.164e-3
1.475,   6.508e-3
1.477,   6.852e-3
1.479,   7.125e-3
1.481,   7.531e-3
1.483,   7.867e-3
1.485,   8.271e-3
1.487,   8.638e-3
1.489,   8.952e-3
1.491,   9.343e-3
1.493,   9.733e-3
1.495,   1.006e-2
1.497,   1.006e-2
1.499,   1.006e-2
1.501,   1.006e-2
1.503,   1.006e-2
1.505,   1.006e-2
1.507,   1.006e-2
1.509,   1.006e-2
1.511,   1.006e-2
1.513,   1.006e-2
1.515,   1.006e-2
1.517,   1.006e-2
1.519,   1.006e-2
1.521,   1.006e-2
1.523,   1.006e-2
1.525,   1.006e-2
1.527,   1.006e-2
1.529,   1.006e-2
1.531,   1.006e-2
1.533,   1.006e-2
1.535,   1.006e-2
1.537,   1.006e-2
1.539,   1.006e-2
1.541,   1.006e-2
1.543,   1.006e-2
1.545,   1.006e-2
1.547,   1.006e-2
1.549,   1.006e-2
1.550,   1.006e-2

File: B4_VARIANCE_400_#1_High_Quality(#25)-377mV.txt
Mar. 27, 2023   14:11:01
Linear Sweep Voltammetry
File: d:\current work\al_oer\electrochemical test data\batch 4\400\B4_VARIANCE_400_#1_High_Quality(#25)-377mV.txt
Data Source:  Experiment
Instrument Model:  CHI660E
Header:
Note:

Init E (V) = 1.109

Final E (V) = 1.681

Scan Rate (V/s) = 0.010
Sample Interval (V) = 0.001
Quiet Time (sec) = 2
Sensitivity (A/V) = 0.001
Comp R (ohm) = 4.9

Results:

Channel 1:
Ep = 1.401V
ip = 3.254e-4A
Ah = 5.868e-3C

Potential/V, Current/A
1.109,   6.149E-05
1.111,   5.271E-05
1.113,   4.565E-05
1.115,   4.031E-05
1.117,   3.619E-05
1.119,   3.270E-05
1.121,   3.014E-05
1.123,   2.794E-05
1.125,   2.618E-05
1.127,   2.473E-05
1.129,   2.342E-05
1.131,   2.234E-05
1.133,   2.138E-05
1.135,   2.059E-05
1.137,   1.983E-05
1.139,   1.927E-05
1.141,   1.867E-05
1.143,   1.814E-05
1.145,   1.789E-05
1.147,   1.739E-05
1.149,   1.705E-05
1.151,   1.676E-05
1.153,   1.646E-05
1.155,   1.626E-05
1.157,   1.597E-05
1.159,   1.582E-05
1.161,   1.558E-05
1.163,   1.540E-05
1.165,   1.527E-05
1.167,   1.520E-05
1.169,   1.505E-05
1.171,   1.499E-05
1.173,   1.478E-05
1.175,   1.469E-05
1.177,   1.470E-05
1.179,   1.455E-05
1.181,   1.452E-05
1.183,   1.452E-05
1.185,   1.442E-05
1.187,   1.438E-05
1.189,   1.439E-05
1.191,   1.435E-05
1.193,   1.430E-05
1.195,   1.431E-05
1.197,   1.430E-05
1.199,   1.428E-05
1.201,   1.419E-05
1.203,   1.417E-05
1.205,   1.417E-05
1.207,   1.415E-05
1.209,   1.426E-05
1.211,   1.415E-05
1.213,   1.422E-05
1.215,   1.424E-05
1.217,   1.421E-05
1.219,   1.421E-05
1.221,   1.422E-05
1.223,   1.430E-05
1.225,   1.431E-05
1.227,   1.423E-05
1.229,   1.428E-05
1.231,   1.426E-05
1.233,   1.440E-05
1.235,   1.437E-05
1.237,   1.428E-05
1.239,   1.442E-05
1.241,   1.438E-05
1.243,   1.450E-05
1.245,   1.450E-05
1.247,   1.452E-05
1.249,   1.467E-05
1.251,   1.464E-05
1.253,   1.458E-05
1.255,   1.480E-05
1.257,   1.476E-05
1.259,   1.491E-05
1.261,   1.491E-05
1.263,   1.497E-05
1.265,   1.501E-05
1.267,   1.499E-05
1.269,   1.508E-05
1.271,   1.523E-05
1.273,   1.527E-05
1.275,   1.544E-05
1.277,   1.542E-05
1.279,   1.549E-05
1.281,   1.560E-05
1.283,   1.561E-05
1.285,   1.568E-05
1.287,   1.579E-05
1.289,   1.589E-05
1.291,   1.597E-05
1.293,   1.607E-05
1.295,   1.607E-05
1.297,   1.629E-05
1.299,   1.636E-05
1.301,   1.639E-05
1.303,   1.657E-05
1.305,   1.664E-05
1.307,   1.660E-05
1.309,   1.676E-05
1.311,   1.697E-05
1.313,   1.707E-05
1.315,   1.713E-05
1.317,   1.723E-05
1.319,   1.735E-05
1.321,   1.746E-05
1.323,   1.759E-05
1.325,   1.777E-05
1.327,   1.785E-05
1.329,   1.796E-05
1.331,   1.818E-05
1.333,   1.818E-05
1.335,   1.841E-05
1.337,   1.848E-05
1.339,   1.874E-05
1.341,   1.891E-05
1.343,   1.895E-05
1.345,   1.919E-05
1.347,   1.930E-05
1.349,   1.954E-05
1.351,   1.965E-05
1.353,   1.988E-05
1.355,   1.997E-05
1.357,   2.015E-05
1.359,   2.036E-05
1.361,   2.053E-05
1.363,   2.082E-05
1.365,   2.093E-05
1.367,   2.125E-05
1.369,   2.147E-05
1.371,   2.181E-05
1.373,   2.198E-05
1.375,   2.226E-05
1.377,   2.251E-05
1.379,   2.278E-05
1.381,   2.316E-05
1.383,   2.355E-05
1.385,   2.384E-05
1.387,   2.434E-05
1.389,   2.474E-05
1.391,   2.529E-05
1.393,   2.577E-05
1.395,   2.640E-05
1.397,   2.703E-05
1.399,   2.773E-05
1.401,   2.847E-05
1.403,   2.941E-05
1.405,   3.030E-05
1.407,   3.136E-05
1.409,   3.266E-05
1.411,   3.393E-05
1.413,   3.561E-05
1.415,   3.738E-05
1.417,   3.923E-05
1.419,   4.149E-05
1.421,   4.391E-05
1.423,   4.647E-05
1.425,   4.945E-05
1.427,   5.266E-05
1.429,   5.642E-05
1.431,   6.055E-05
1.433,   6.479E-05
1.435,   6.956E-05
1.437,   7.504E-05
1.439,   8.087E-05
1.441,   8.711E-05
1.443,   9.412E-05
1.445,   1.016E-04
1.447,   1.096E-04
1.449,   1.186E-04
1.451,   1.283E-04
1.453,   1.385E-04
1.455,   1.495E-04
1.457,   1.614E-04
1.459,   1.740E-04
1.461,   1.877E-04
1.463,   2.023E-04
1.465,   2.175E-04
1.467,   2.332E-04
1.469,   2.504E-04
1.471,   2.686E-04
1.473,   2.878E-04
1.475,   3.078E-04
1.477,   3.292E-04
1.479,   3.510E-04
1.481,   3.743E-04
1.483,   3.986E-04
1.485,   4.235E-04
1.487,   4.498E-04
1.489,   4.767E-04
1.491,   5.048E-04
1.493,   5.333E-04
1.495,   5.624E-04
1.497,   5.925E-04
1.499,   6.238E-04
1.501,   6.561E-04
1.503,   6.891E-04
1.505,   7.227E-04
1.507,   7.569E-04
1.509,   7.904E-04
1.511,   8.246E-04
1.513,   8.594E-04
1.515,   8.941E-04
1.517,   9.306E-04
1.519,   9.671E-04
1.521,   1.002E-03
1.523,   1.038E-03
1.525,   1.074E-03
1.527,   1.109E-03
1.529,   1.144E-03
1.531,   1.179E-03
1.533,   1.215E-03
1.535,   1.249E-03
1.537,   1.283E-03
1.539,   1.317E-03
1.541,   1.350E-03
1.543,   1.383E-03
1.545,   1.415E-03
1.547,   1.445E-03
1.549,   1.476E-03
1.551,   1.507E-03
1.553,   1.536E-03
1.555,   1.563E-03
1.557,   1.588E-03
1.559,   1.616E-03
1.561,   1.642E-03
1.563,   1.667E-03
1.565,   1.690E-03
1.567,   1.715E-03
1.569,   1.737E-03
1.571,   1.759E-03
1.573,   1.779E-03
1.575,   1.797E-03
1.577,   1.815E-03
1.579,   1.831E-03
1.581,   1.851E-03
1.583,   1.867E-03
1.585,   1.879E-03
1.587,   1.891E-03
1.589,   1.902E-03
1.591,   1.914E-03
1.593,   1.923E-03
1.595,   1.933E-03
1.597,   1.940E-03
1.599,   1.947E-03
1.601,   1.951E-03
1.603,   1.955E-03
1.605,   1.958E-03
1.607,   1.962E-03
1.609,   1.963E-03
1.611,   1.961E-03
1.613,   1.961E-03
1.615,   1.958E-03
1.617,   1.960E-03
1.619,   1.954E-03
1.621,   1.950E-03
1.623,   1.940E-03
1.625,   1.934E-03
1.627,   1.925E-03
1.629,   1.920E-03
1.631,   1.912E-03
1.633,   1.904E-03
1.635,   1.892E-03
1.637,   1.881E-03
1.639,   1.868E-03
1.641,   1.855E-03
1.643,   1.842E-03
1.645,   1.829E-03
1.647,   1.815E-03
1.649,   1.798E-03
1.651,   1.783E-03
1.653,   1.771E-03
1.655,   1.757E-03
1.657,   1.740E-03
1.659,   1.724E-03
1.661,   1.706E-03
1.663,   1.686E-03
1.665,   1.671E-03
1.667,   1.655E-03
1.669,   1.637E-03
1.671,   1.619E-03
1.673,   1.600E-03
1.675,   1.584E-03
1.677,   1.569E-03
1.679,   1.550E-03
1.681,   1.533E-03