Folder: DASH/Experimental Records, Raw Data, and Supplementary Notes and Figures/batch4/final500 (part 3)

File: B4_VARIANCE_500_#3_High_Quality(#27)-248mV.txt
Mar. 28, 2023   12:50:10
Linear Sweep Voltammetry
File: d:\current work\al_oer\electrochemical test data\batch 4\500\B4_VARIANCE_500_#3_High_Quality(#27)-248mV.txt
Data Source:  Experiment
Instrument Model:  CHI660E
Header:
Note:

Init E (V) = 1.084

Final E (V) = 1.525

Scan Rate (V/s) = 0.010
Sample Interval (V) = 0.001
Quiet Time (sec) = 2
Sensitivity (A/V) = 0.001
Comp R (ohm) = 5.0

Results:

Channel 1:

Potential/V, Current/A
1.084,   3.490e-5
1.086,   3.188e-5
1.088,   2.876e-5
1.090,   2.643e-5
1.092,   2.451e-5
1.094,   2.304e-5
1.096,   2.174e-5
1.098,   2.081e-5
1.100,   1.993e-5
1.102,   1.913e-5
1.104,   1.846e-5
1.106,   1.794e-5
1.108,   1.745e-5
1.110,   1.701e-5
1.112,   1.666e-5
1.114,   1.637e-5
1.116,   1.608e-5
1.118,   1.585e-5
1.120,   1.557e-5
1.122,   1.538e-5
1.124,   1.521e-5
1.126,   1.503e-5
1.128,   1.487e-5
1.130,   1.473e-5
1.132,   1.464e-5
1.134,   1.453e-5
1.136,   1.446e-5
1.138,   1.440e-5
1.140,   1.433e-5
1.142,   1.430e-5
1.144,   1.425e-5
1.146,   1.426e-5
1.148,   1.421e-5
1.150,   1.420e-5
1.152,   1.415e-5
1.154,   1.417e-5
1.156,   1.418e-5
1.158,   1.423e-5
1.160,   1.421e-5
1.162,   1.427e-5
1.164,   1.428e-5
1.166,   1.436e-5
1.168,   1.440e-5
1.170,   1.440e-5
1.172,   1.451e-5
1.174,   1.455e-5
1.176,   1.461e-5
1.178,   1.465e-5
1.180,   1.472e-5
1.182,   1.481e-5
1.184,   1.488e-5
1.186,   1.492e-5
1.188,   1.502e-5
1.190,   1.512e-5
1.192,   1.520e-5
1.194,   1.530e-5
1.196,   1.540e-5
1.198,   1.554e-5
1.200,   1.558e-5
1.202,   1.565e-5
1.204,   1.584e-5
1.206,   1.598e-5
1.208,   1.610e-5
1.210,   1.623e-5
1.212,   1.635e-5
1.214,   1.650e-5
1.216,   1.662e-5
1.218,   1.673e-5
1.220,   1.690e-5
1.222,   1.698e-5
1.224,   1.713e-5
1.226,   1.730e-5
1.228,   1.741e-5
1.230,   1.761e-5
1.232,   1.776e-5
1.234,   1.789e-5
1.236,   1.802e-5
1.238,   1.814e-5
1.240,   1.831e-5
1.242,   1.843e-5
1.244,   1.861e-5
1.246,   1.872e-5
1.248,   1.888e-5
1.250,   1.906e-5
1.252,   1.925e-5
1.254,   1.941e-5
1.256,   1.966e-5
1.258,   1.984e-5
1.260,   2.001e-5
1.262,   2.029e-5
1.264,   2.045e-5
1.266,   2.065e-5
1.268,   2.085e-5
1.270,   2.104e-5
1.272,   2.127e-5
1.274,   2.145e-5
1.276,   2.168e-5
1.278,   2.194e-5
1.280,   2.223e-5
1.282,   2.252e-5
1.284,   2.280e-5
1.286,   2.319e-5
1.288,   2.350e-5
1.290,   2.373e-5
1.292,   2.406e-5
1.294,   2.446e-5
1.296,   2.468e-5
1.298,   2.503e-5
1.300,   2.539e-5
1.302,   2.576e-5
1.304,   2.618e-5
1.306,   2.659e-5
1.308,   2.697e-5
1.310,   2.743e-5
1.312,   2.787e-5
1.314,   2.832e-5
1.316,   2.876e-5
1.318,   2.922e-5
1.320,   2.976e-5
1.322,   3.026e-5
1.324,   3.086e-5
1.326,   3.147e-5
1.328,   3.215e-5
1.330,   3.277e-5
1.332,   3.346e-5
1.334,   3.423e-5
1.336,   3.500e-5
1.338,   3.585e-5
1.340,   3.687e-5
1.342,   3.777e-5
1.344,   3.869e-5
1.346,   3.978e-5
1.348,   4.102e-5
1.350,   4.210e-5
1.352,   4.343e-5
1.354,   4.485e-5
1.356,   4.643e-5
1.358,   4.836e-5
1.360,   5.049e-5
1.362,   5.267e-5
1.364,   5.485e-5
1.366,   5.720e-5
1.368,   5.996e-5
1.370,   6.321e-5
1.372,   6.681e-5
1.374,   7.098e-5
1.376,   7.563e-5
1.378,   8.104e-5
1.380,   8.713e-5
1.382,   9.421e-5
1.384,   1.025e-4
1.386,   1.123e-4
1.388,   1.236e-4
1.390,   1.370e-4
1.392,   1.525e-4
1.394,   1.697e-4
1.396,   1.886e-4
1.398,   2.080e-4
1.400,   2.273e-4
1.402,   2.453e-4
1.404,   2.605e-4
1.406,   2.722e-4
1.408,   2.812e-4
1.410,   2.896e-4
1.412,   2.991e-4
1.414,   3.122e-4
1.416,   3.293e-4
1.418,   3.495e-4
1.420,   3.733e-4
1.422,   4.015e-4
1.424,   4.336e-4
1.426,   4.690e-4
1.428,   5.053e-4
1.430,   5.440e-4
1.432,   5.874e-4
1.434,   6.317e-4
1.436,   6.769e-4
1.438,   7.293e-4
1.440,   7.828e-4
1.442,   8.386e-4
1.444,   8.926e-4
1.446,   9.470e-4
1.448,   1.005e-3
1.450,   1.065e-3
1.452,   1.128e-3
1.454,   1.185e-3
1.456,   1.245e-3
1.458,   1.308e-3
1.460,   1.369e-3
1.462,   1.429e-3
1.464,   1.490e-3
1.466,   1.554e-3
1.468,   1.617e-3
1.470,   1.679e-3
1.472,   1.743e-3
1.474,   1.803e-3
1.476,   1.866e-3
1.478,   1.928e-3
1.480,   1.983e-3
1.482,   2.031e-3
1.484,   2.080e-3
1.486,   2.119e-3
1.488,   2.159e-3
1.490,   2.195e-3
1.492,   2.231e-3
1.494,   2.269e-3
1.496,   2.304e-3
1.498,   2.336e-3
1.500,   2.368e-3
1.502,   2.392e-3
1.504,   2.419e-3
1.506,   2.441e-3
1.508,   2.462e-3
1.510,   2.480e-3
1.512,   2.493e-3
1.514,   2.505e-3
1.516,   2.515e-3
1.518,   2.520e-3
1.520,   2.526e-3
1.522,   2.530e-3
1.524,   2.533e-3
1.525,   2.534e-3

File: B4_VARIANCE_500_#4_Full(#12)-311mV.txt
Mar. 29, 2023   12:39:07
Linear Sweep Voltammetry
File: d:\current work\al_oer\electrochemical test data\batch 4\500\B4_VARIANCE_500_#4_Full(#12)-311mV.txt
Data Source:  Experiment
Instrument Model:  CHI660E
Header:
Note:

Init E (V) = 1.099

Final E (V) = 1.549

Scan Rate (V/s) = 0.010
Sample Interval (V) = 0.001
Quiet Time (sec) = 2
Sensitivity (A/V) = 0.001
Comp R (ohm) = 5.2

Results:

Channel 1:

Potential/V, Current/A
1.099,   3.501e-5
1.101,   3.272e-5
1.103,   2.940e-5
1.105,   2.674e-5
1.107,   2.464e-5
1.109,   2.288e-5
1.111,   2.140e-5
1.113,   2.022e-5
1.115,   1.914e-5
1.117,   1.831e-5
1.119,   1.757e-5
1.121,   1.688e-5
1.123,   1.632e-5
1.125,   1.586e-5
1.127,   1.540e-5
1.129,   1.504e-5
1.131,   1.468e-5
1.133,   1.442e-5
1.135,   1.415e-5
1.137,   1.386e-5
1.139,   1.369e-5
1.141,   1.352e-5
1.143,   1.336e-5
1.145,   1.324e-5
1.147,   1.306e-5
1.149,   1.299e-5
1.151,   1.288e-5
1.153,   1.277e-5
1.155,   1.270e-5
1.157,   1.266e-5
1.159,   1.261e-5
1.161,   1.258e-5
1.163,   1.250e-5
1.165,   1.253e-5
1.167,   1.247e-5
1.169,   1.243e-5
1.171,   1.246e-5
1.173,   1.248e-5
1.175,   1.242e-5
1.177,   1.245e-5
1.179,   1.245e-5
1.181,   1.253e-5
1.183,   1.254e-5
1.185,   1.252e-5
1.187,   1.256e-5
1.189,   1.263e-5
1.191,   1.262e-5
1.193,   1.266e-5
1.195,   1.272e-5
1.197,   1.277e-5
1.199,   1.279e-5
1.201,   1.284e-5
1.203,   1.293e-5
1.205,   1.298e-5
1.207,   1.302e-5
1.209,   1.309e-5
1.211,   1.315e-5
1.213,   1.325e-5
1.215,   1.331e-5
1.217,   1.338e-5
1.219,   1.345e-5
1.221,   1.357e-5
1.223,   1.366e-5
1.225,   1.374e-5
1.227,   1.379e-5
1.229,   1.394e-5
1.231,   1.404e-5
1.233,   1.412e-5
1.235,   1.429e-5
1.237,   1.439e-5
1.239,   1.453e-5
1.241,   1.465e-5
1.243,   1.476e-5
1.245,   1.494e-5
1.247,   1.510e-5
1.249,   1.524e-5
1.251,   1.542e-5
1.253,   1.561e-5
1.255,   1.579e-5
1.257,   1.598e-5
1.259,   1.615e-5
1.261,   1.640e-5
1.263,   1.658e-5
1.265,   1.676e-5
1.267,   1.700e-5
1.269,   1.724e-5
1.271,   1.749e-5
1.273,   1.773e-5
1.275,   1.797e-5
1.277,   1.826e-5
1.279,   1.852e-5
1.281,   1.876e-5
1.283,   1.905e-5
1.285,   1.934e-5
1.287,   1.964e-5
1.289,   1.994e-5
1.291,   2.022e-5
1.293,   2.057e-5
1.295,   2.088e-5
1.297,   2.114e-5
1.299,   2.148e-5
1.301,   2.180e-5
1.303,   2.213e-5
1.305,   2.248e-5
1.307,   2.278e-5
1.309,   2.316e-5
1.311,   2.348e-5
1.313,   2.377e-5
1.315,   2.417e-5
1.317,   2.451e-5
1.319,   2.488e-5
1.321,   2.520e-5
1.323,   2.558e-5
1.325,   2.598e-5
1.327,   2.631e-5
1.329,   2.665e-5
1.331,   2.699e-5
1.333,   2.736e-5
1.335,   2.774e-5
1.337,   2.813e-5
1.339,   2.846e-5
1.341,   2.883e-5
1.343,   2.923e-5
1.345,   2.957e-5
1.347,   2.994e-5
1.349,   3.032e-5
1.351,   3.074e-5
1.353,   3.109e-5
1.355,   3.147e-5
1.357,   3.184e-5
1.359,   3.221e-5
1.361,   3.261e-5
1.363,   3.303e-5
1.365,   3.344e-5
1.367,   3.388e-5
1.369,   3.434e-5
1.371,   3.470e-5
1.373,   3.526e-5
1.375,   3.565e-5
1.377,   3.612e-5
1.379,   3.663e-5
1.381,   3.718e-5
1.383,   3.764e-5
1.385,   3.813e-5
1.387,   3.880e-5
1.389,   3.950e-5
1.391,   4.015e-5
1.393,   4.093e-5
1.395,   4.180e-5
1.397,   4.276e-5
1.399,   4.367e-5
1.401,   4.488e-5
1.403,   4.603e-5
1.405,   4.747e-5
1.407,   4.898e-5
1.409,   5.057e-5
1.411,   5.246e-5
1.413,   5.450e-5
1.415,   5.678e-5
1.417,   5.924e-5
1.419,   6.208e-5
1.421,   6.519e-5
1.423,   6.852e-5
1.425,   7.226e-5
1.427,   7.657e-5
1.429,   8.129e-5
1.431,   8.621e-5
1.433,   9.183e-5
1.435,   9.788e-5
1.437,   1.046e-4
1.439,   1.119e-4
1.441,   1.200e-4
1.443,   1.287e-4
1.445,   1.383e-4
1.447,   1.488e-4
1.449,   1.601e-4
1.451,   1.724e-4
1.453,   1.858e-4
1.455,   2.000e-4
1.457,   2.155e-4
1.459,   2.321e-4
1.461,   2.501e-4
1.463,   2.693e-4
1.465,   2.898e-4
1.467,   3.118e-4
1.469,   3.351e-4
1.471,   3.596e-4
1.473,   3.858e-4
1.475,   4.134e-4
1.477,   4.425e-4
1.479,   4.733e-4
1.481,   5.058e-4
1.483,   5.391e-4
1.485,   5.740e-4
1.487,   6.100e-4
1.489,   6.473e-4
1.491,   6.857e-4
1.493,   7.252e-4
1.495,   7.647e-4
1.497,   8.059e-4
1.499,   8.479e-4
1.501,   8.902e-4
1.503,   9.335e-4
1.505,   9.785e-4
1.507,   1.023e-3
1.509,   1.070e-3
1.511,   1.118e-3
1.513,   1.168e-3
1.515,   1.215e-3
1.517,   1.266e-3
1.519,   1.320e-3
1.521,   1.371e-3
1.523,   1.423e-3
1.525,   1.476e-3
1.527,   1.531e-3
1.529,   1.587e-3
1.531,   1.644e-3
1.533,   1.701e-3
1.535,   1.762e-3
1.537,   1.820e-3
1.539,   1.877e-3
1.541,   1.948e-3
1.543,   2.004e-3
1.545,   2.073e-3
1.547,   2.132e-3
1.549,   2.201e-3

File: B4_VARIANCE_500_#4_High_Quality(#28)-277mV.txt
Mar. 28, 2023   11:43:00
Linear Sweep Voltammetry
File: d:\current work\al_oer\electrochemical test data\batch 4\500\B4_VARIANCE_500_#4_High_Quality(#28)-277mV.txt
Data Source:  Experiment
Instrument Model:  CHI660E
Header:
Note:

Init E (V) = 1.097

Final E (V) = 1.521

Scan Rate (V/s) = 0.010
Sample Interval (V) = 0.001
Quiet Time (sec) = 2
Sensitivity (A/V) = 0.001
Comp R (ohm) = 6.4

Results:

Channel 1:

Potential/V, Current/A
1.097,   1.184e-4
1.099,   1.025e-4
1.101,   8.949e-5
1.103,   7.927e-5
1.105,   7.128e-5
1.107,   6.482e-5
1.109,   5.944e-5
1.111,   5.503e-5
1.113,   5.131e-5
1.115,   4.825e-5
1.117,   4.553e-5
1.119,   4.328e-5
1.121,   4.127e-5
1.123,   3.957e-5
1.125,   3.806e-5
1.127,   3.686e-5
1.129,   3.570e-5
1.131,   3.471e-5
1.133,   3.383e-5
1.135,   3.298e-5
1.137,   3.226e-5
1.139,   3.160e-5
1.141,   3.104e-5
1.143,   3.055e-5
1.145,   3.007e-5
1.147,   2.972e-5
1.149,   2.936e-5
1.151,   2.905e-5
1.153,   2.879e-5
1.155,   2.851e-5
1.157,   2.833e-5
1.159,   2.807e-5
1.161,   2.793e-5
1.163,   2.777e-5
1.165,   2.767e-5
1.167,   2.757e-5
1.169,   2.752e-5
1.171,   2.747e-5
1.173,   2.739e-5
1.175,   2.730e-5
1.177,   2.729e-5
1.179,   2.729e-5
1.181,   2.728e-5
1.183,   2.732e-5
1.185,   2.734e-5
1.187,   2.738e-5
1.189,   2.745e-5
1.191,   2.744e-5
1.193,   2.748e-5
1.195,   2.757e-5
1.197,   2.760e-5
1.199,   2.768e-5
1.201,   2.773e-5
1.203,   2.787e-5
1.205,   2.794e-5
1.207,   2.803e-5
1.209,   2.814e-5
1.211,   2.827e-5
1.213,   2.837e-5
1.215,   2.844e-5
1.217,   2.858e-5
1.219,   2.864e-5
1.221,   2.879e-5
1.223,   2.892e-5
1.225,   2.897e-5
1.227,   2.914e-5
1.229,   2.926e-5
1.231,   2.934e-5
1.233,   2.949e-5
1.235,   2.961e-5
1.237,   2.972e-5
1.239,   2.980e-5
1.241,   2.992e-5
1.243,   3.006e-5
1.245,   3.020e-5
1.247,   3.036e-5
1.249,   3.048e-5
1.251,   3.063e-5
1.253,   3.081e-5
1.255,   3.090e-5
1.257,   3.107e-5
1.259,   3.121e-5
1.261,   3.135e-5
1.263,   3.147e-5
1.265,   3.166e-5
1.267,   3.187e-5
1.269,   3.201e-5
1.271,   3.214e-5
1.273,   3.234e-5
1.275,   3.255e-5
1.277,   3.273e-5
1.279,   3.287e-5
1.281,   3.311e-5
1.283,   3.334e-5
1.285,   3.357e-5
1.287,   3.383e-5
1.289,   3.398e-5
1.291,   3.424e-5
1.293,   3.439e-5
1.295,   3.460e-5
1.297,   3.483e-5
1.299,   3.510e-5
1.301,   3.535e-5
1.303,   3.563e-5
1.305,   3.588e-5
1.307,   3.620e-5
1.309,   3.651e-5
1.311,   3.676e-5
1.313,   3.708e-5
1.315,   3.747e-5
1.317,   3.779e-5
1.319,   3.813e-5
1.321,   3.850e-5
1.323,   3.907e-5
1.325,   3.945e-5
1.327,   3.985e-5
1.329,   4.028e-5
1.331,   4.082e-5
1.333,   4.110e-5
1.335,   4.159e-5
1.337,   4.207e-5
1.339,   4.265e-5
1.341,   4.327e-5
1.343,   4.396e-5
1.345,   4.458e-5
1.347,   4.533e-5
1.349,   4.610e-5
1.351,   4.677e-5
1.353,   4.748e-5
1.355,   4.846e-5
1.357,   4.928e-5
1.359,   5.025e-5
1.361,   5.137e-5
1.363,   5.253e-5
1.365,   5.377e-5
1.367,   5.499e-5
1.369,   5.636e-5
1.371,   5.783e-5
1.373,   5.949e-5
1.375,   6.134e-5
1.377,   6.326e-5
1.379,   6.543e-5
1.381,   6.790e-5
1.383,   7.046e-5
1.385,   7.329e-5
1.387,   7.677e-5
1.389,   8.050e-5
1.391,   8.462e-5
1.393,   8.913e-5
1.395,   9.424e-5
1.397,   9.989e-5
1.399,   1.060e-4
1.401,   1.129e-4
1.403,   1.206e-4
1.405,   1.291e-4
1.407,   1.384e-4
1.409,   1.486e-4
1.411,   1.598e-4
1.413,   1.718e-4
1.415,   1.850e-4
1.417,   1.992e-4
1.419,   2.147e-4
1.421,   2.313e-4
1.423,   2.492e-4
1.425,   2.684e-4
1.427,   2.890e-4
1.429,   3.110e-4
1.431,   3.340e-4
1.433,   3.585e-4
1.435,   3.844e-4
1.437,   4.120e-4
1.439,   4.414e-4
1.441,   4.713e-4
1.443,   5.035e-4
1.445,   5.365e-4
1.447,   5.714e-4
1.449,   6.070e-4
1.451,   6.448e-4
1.453,   6.832e-4
1.455,   7.230e-4
1.457,   7.638e-4
1.459,   8.066e-4
1.461,   8.495e-4
1.463,   8.940e-4
1.465,   9.394e-4
1.467,   9.851e-4
1.469,   1.032e-3
1.471,   1.079e-3
1.473,   1.127e-3
1.475,   1.175e-3
1.477,   1.224e-3
1.479,   1.272e-3
1.481,   1.320e-3
1.483,   1.371e-3
1.485,   1.421e-3
1.487,   1.469e-3
1.489,   1.517e-3
1.491,   1.566e-3
1.493,   1.615e-3
1.495,   1.662e-3
1.497,   1.710e-3
1.499,   1.753e-3
1.501,   1.797e-3
1.503,   1.842e-3
1.505,   1.890e-3
1.507,   1.933e-3
1.509,   1.973e-3
1.511,   2.013e-3
1.513,   2.050e-3
1.515,   2.087e-3
1.517,   2.128e-3
1.519,   2.163e-3
1.521,   2.197e-3

File: B4_VARIANCE_500_#5_Full(#13)-295mV.txt
Mar. 29, 2023   12:39:07
Linear Sweep Voltammetry
File: d:\current work\al_oer\electrochemical test data\batch 4\500\B4_VARIANCE_500_#5_Full(#13)-295mV.txt
Data Source:  Experiment
Instrument Model:  CHI660E
Header:
Note:

Init E (V) = 1.083

Final E (V) = 1.533

Scan Rate (V/s) = 0.010
Sample Interval (V) = 0.001
Quiet Time (sec) = 2
Sensitivity (A/V) = 0.001
Comp R (ohm) = 5.2

Results:

Channel 1:

Potential/V, Current/A
1.083,   3.501e-5
1.085,   3.272e-5
1.087,   2.940e-5
1.089,   2.674e-5
1.091,   2.464e-5
1.093,   2.288e-5
1.095,   2.140e-5
1.097,   2.022e-5
1.099,   1.914e-5
1.101,   1.831e-5
1.103,   1.757e-5
1.105,   1.688e-5
1.107,   1.632e-5
1.109,   1.586e-5
1.111,   1.540e-5
1.113,   1.504e-5
1.115,   1.468e-5
1.117,   1.442e-5
1.119,   1.415e-5
1.121,   1.386e-5
1.123,   1.369e-5
1.125,   1.352e-5
1.127,   1.336e-5
1.129,   1.324e-5
1.131,   1.306e-5
1.133,   1.299e-5
1.135,   1.288e-5
1.137,   1.277e-5
1.139,   1.270e-5
1.141,   1.266e-5
1.143,   1.261e-5
1.145,   1.258e-5
1.147,   1.250e-5
1.149,   1.253e-5
1.151,   1.247e-5
1.153,   1.243e-5
1.155,   1.246e-5
1.157,   1.248e-5
1.159,   1.242e-5
1.161,   1.245e-5
1.163,   1.245e-5
1.165,   1.253e-5
1.167,   1.254e-5
1.169,   1.252e-5
1.171,   1.256e-5
1.173,   1.263e-5
1.175,   1.262e-5
1.177,   1.266e-5
1.179,   1.272e-5
1.181,   1.277e-5
1.183,   1.279e-5
1.185,   1.284e-5
1.187,   1.293e-5
1.189,   1.298e-5
1.191,   1.302e-5
1.193,   1.309e-5
1.195,   1.315e-5
1.197,   1.325e-5
1.199,   1.331e-5
1.201,   1.338e-5
1.203,   1.345e-5
1.205,   1.357e-5
1.207,   1.366e-5
1.209,   1.374e-5
1.211,   1.379e-5
1.213,   1.394e-5
1.215,   1.404e-5
1.217,   1.412e-5
1.219,   1.429e-5
1.221,   1.439e-5
1.223,   1.453e-5
1.225,   1.465e-5
1.227,   1.476e-5
1.229,   1.494e-5
1.231,   1.510e-5
1.233,   1.524e-5
1.235,   1.542e-5
1.237,   1.561e-5
1.239,   1.579e-5
1.241,   1.598e-5
1.243,   1.615e-5
1.245,   1.640e-5
1.247,   1.658e-5
1.249,   1.676e-5
1.251,   1.700e-5
1.253,   1.724e-5
1.255,   1.749e-5
1.257,   1.773e-5
1.259,   1.797e-5
1.261,   1.826e-5
1.263,   1.852e-5
1.265,   1.876e-5
1.267,   1.905e-5
1.269,   1.934e-5
1.271,   1.964e-5
1.273,   1.994e-5
1.275,   2.022e-5
1.277,   2.057e-5
1.279,   2.088e-5
1.281,   2.114e-5
1.283,   2.148e-5
1.285,   2.180e-5
1.287,   2.213e-5
1.289,   2.248e-5
1.291,   2.278e-5
1.293,   2.316e-5
1.295,   2.348e-5
1.297,   2.377e-5
1.299,   2.417e-5
1.301,   2.451e-5
1.303,   2.488e-5
1.305,   2.520e-5
1.307,   2.558e-5
1.309,   2.598e-5
1.311,   2.631e-5
1.313,   2.665e-5
1.315,   2.699e-5
1.317,   2.736e-5
1.319,   2.774e-5
1.321,   2.813e-5
1.323,   2.846e-5
1.325,   2.883e-5
1.327,   2.923e-5
1.329,   2.957e-5
1.331,   2.994e-5
1.333,   3.032e-5
1.335,   3.074e-5
1.337,   3.109e-5
1.339,   3.147e-5
1.341,   3.184e-5
1.343,   3.221e-5
1.345,   3.261e-5
1.347,   3.303e-5
1.349,   3.344e-5
1.351,   3.388e-5
1.353,   3.434e-5
1.355,   3.470e-5
1.357,   3.526e-5
1.359,   3.565e-5
1.361,   3.612e-5
1.363,   3.663e-5
1.365,   3.718e-5
1.367,   3.764e-5
1.369,   3.813e-5
1.371,   3.880e-5
1.373,   3.950e-5
1.375,   4.015e-5
1.377,   4.093e-5
1.379,   4.180e-5
1.381,   4.276e-5
1.383,   4.367e-5
1.385,   4.488e-5
1.387,   4.603e-5
1.389,   4.747e-5
1.391,   4.898e-5
1.393,   5.057e-5
1.395,   5.246e-5
1.397,   5.450e-5
1.399,   5.678e-5
1.401,   5.924e-5
1.403,   6.208e-5
1.405,   6.519e-5
1.407,   6.852e-5
1.409,   7.226e-5
1.411,   7.657e-5
1.413,   8.129e-5
1.415,   8.621e-5
1.417,   9.183e-5
1.419,   9.788e-5
1.421,   1.046e-4
1.423,   1.119e-4
1.425,   1.200e-4
1.427,   1.287e-4
1.429,   1.383e-4
1.431,   1.488e-4
1.433,   1.601e-4
1.435,   1.724e-4
1.437,   1.858e-4
1.439,   2.000e-4
1.441,   2.155e-4
1.443,   2.321e-4
1.445,   2.501e-4
1.447,   2.693e-4
1.449,   2.898e-4
1.451,   3.118e-4
1.453,   3.351e-4
1.455,   3.596e-4
1.457,   3.858e-4
1.459,   4.134e-4
1.461,   4.425e-4
1.463,   4.733e-4
1.465,   5.058e-4
1.467,   5.391e-4
1.469,   5.740e-4
1.471,   6.100e-4
1.473,   6.473e-4
1.475,   6.857e-4
1.477,   7.252e-4
1.479,   7.647e-4
1.481,   8.059e-4
1.483,   8.479e-4
1.485,   8.902e-4
1.487,   9.335e-4
1.489,   9.785e-4
1.491,   1.023e-3
1.493,   1.070e-3
1.495,   1.118e-3
1.497,   1.168e-3
1.499,   1.215e-3
1.501,   1.266e-3
1.503,   1.320e-3
1.505,   1.371e-3
1.507,   1.423e-3
1.509,   1.476e-3
1.511,   1.531e-3
1.513,   1.587e-3
1.515,   1.644e-3
1.517,   1.701e-3
1.519,   1.762e-3
1.521,   1.820e-3
1.523,   1.877e-3
1.525,   1.948e-3
1.527,   2.004e-3
1.529,   2.073e-3
1.531,   2.132e-3
1.533,   2.201e-3

File: B4_VARIANCE_500_#6_Full(#14)-375mV.txt
Mar. 29, 2023   12:24:19
Linear Sweep Voltammetry
File: d:\current work\al_oer\electrochemical test data\batch 4\500\B4_VARIANCE_500_#6_Full(#14)-375mV.txt
Data Source:  Experiment
Instrument Model:  CHI660E
Header:
Note:

Init E (V) = 1.084

Final E (V) = 1.607

Scan Rate (V/s) = 0.010
Sample Interval (V) = 0.001
Quiet Time (sec) = 2
Sensitivity (A/V) = 0.001
Comp R (ohm) = 5.4

Results:

Channel 1:

Potential/V, Current/A
1.084,   9.743E-05
1.086,   9.140E-05
1.088,   8.475E-05
1.09,   8.030E-05
1.092,   7.598E-05
1.094,   7.236E-05
1.096,   6.968E-05
1.098,   6.706E-05
1.1,   6.520E-05
1.102,   6.284E-05
1.104,   6.088E-05
1.106,   5.954E-05
1.108,   5.786E-05
1.11,   5.697E-05
1.112,   5.517E-05
1.114,   5.453E-05
1.116,   5.337E-05
1.118,   5.261E-05
1.12,   5.261E-05
1.122,   5.189E-05
1.124,   5.105E-05
1.126,   5.001E-05
1.128,   4.989E-05
1.13,   4.910E-05
1.132,   4.888E-05
1.134,   4.881E-05
1.136,   4.864E-05
1.138,   4.810E-05
1.14,   4.781E-05
1.142,   4.767E-05
1.144,   4.731E-05
1.146,   4.681E-05
1.148,   4.648E-05
1.15,   4.661E-05
1.152,   4.624E-05
1.154,   4.624E-05
1.156,   4.629E-05
1.158,   4.597E-05
1.16,   4.639E-05
1.162,   4.613E-05
1.164,   4.581E-05
1.166,   4.597E-05
1.168,   4.605E-05
1.17,   4.557E-05
1.172,   4.558E-05
1.174,   4.555E-05
1.176,   4.558E-05
1.178,   4.549E-05
1.18,   4.519E-05
1.182,   4.556E-05
1.184,   4.556E-05
1.186,   4.535E-05
1.188,   4.564E-05
1.19,   4.590E-05
1.192,   4.588E-05
1.194,   4.595E-05
1.196,   4.609E-05
1.198,   4.596E-05
1.2,   4.580E-05
1.202,   4.612E-05
1.204,   4.639E-05
1.206,   4.673E-05
1.208,   4.665E-05
1.21,   4.646E-05
1.212,   4.636E-05
1.214,   4.689E-05
1.216,   4.684E-05
1.218,   4.704E-05
1.22,   4.718E-05
1.222,   4.730E-05
1.224,   4.727E-05
1.226,   4.745E-05
1.228,   4.767E-05
1.23,   4.805E-05
1.232,   4.817E-05
1.234,   4.810E-05
1.236,   4.846E-05
1.238,   4.869E-05
1.24,   4.847E-05
1.242,   4.888E-05
1.244,   4.890E-05
1.246,   4.944E-05
1.248,   4.960E-05
1.25,   4.959E-05
1.252,   5.006E-05
1.254,   5.009E-05
1.256,   5.042E-05
1.258,   5.083E-05
1.26,   5.158E-05
1.262,   5.129E-05
1.264,   5.154E-05
1.266,   5.171E-05
1.268,   5.170E-05
1.27,   5.242E-05
1.272,   5.227E-05
1.274,   5.274E-05
1.276,   5.301E-05
1.278,   5.360E-05
1.28,   5.475E-05
1.282,   5.430E-05
1.284,   5.517E-05
1.286,   5.573E-05
1.288,   5.602E-05
1.29,   5.634E-05
1.292,   5.678E-05
1.294,   5.805E-05
1.296,   5.785E-05
1.298,   5.816E-05
1.3,   5.882E-05
1.302,   5.924E-05
1.304,   5.973E-05
1.306,   6.012E-05
1.308,   6.083E-05
1.31,   6.153E-05
1.312,   6.247E-05
1.314,   6.204E-05
1.316,   6.258E-05
1.318,   6.348E-05
1.32,   6.392E-05
1.322,   6.409E-05
1.324,   6.467E-05
1.326,   6.537E-05
1.328,   6.550E-05
1.33,   6.763E-05
1.332,   6.909E-05
1.334,   6.882E-05
1.336,   6.887E-05
1.338,   6.952E-05
1.34,   7.031E-05
1.342,   7.069E-05
1.344,   7.179E-05
1.346,   7.233E-05
1.348,   7.349E-05
1.35,   7.377E-05
1.352,   7.516E-05
1.354,   7.587E-05
1.356,   7.640E-05
1.358,   7.712E-05
1.36,   7.866E-05
1.362,   7.958E-05
1.364,   8.069E-05
1.366,   8.194E-05
1.368,   8.277E-05
1.37,   8.372E-05
1.372,   8.469E-05
1.374,   8.649E-05
1.376,   8.799E-05
1.378,   8.950E-05
1.38,   9.137E-05
1.382,   9.321E-05
1.384,   9.596E-05
1.386,   9.770E-05
1.388,   9.969E-05
1.39,   1.027E-04
1.392,   1.060E-04
1.394,   1.090E-04
1.396,   1.124E-04
1.398,   1.161E-04
1.4,   1.203E-04
1.402,   1.237E-04
1.404,   1.288E-04
1.406,   1.341E-04
1.408,   1.394E-04
1.41,   1.456E-04
1.412,   1.520E-04
1.414,   1.585E-04
1.416,   1.653E-04
1.418,   1.722E-04
1.42,   1.802E-04
1.422,   1.885E-04
1.424,   1.973E-04
1.426,   2.067E-04
1.428,   2.162E-04
1.43,   2.270E-04
1.432,   2.387E-04
1.434,   2.520E-04
1.436,   2.601E-04
1.438,   2.748E-04
1.44,   2.885E-04
1.442,   3.014E-04
1.444,   3.170E-04
1.446,   3.318E-04
1.448,   3.456E-04
1.45,   3.602E-04
1.452,   3.753E-04
1.454,   3.890E-04
1.456,   4.025E-04
1.458,   4.177E-04
1.46,   4.331E-04
1.462,   4.519E-04
1.464,   4.653E-04
1.466,   4.839E-04
1.468,   5.028E-04
1.47,   5.211E-04
1.472,   5.384E-04
1.474,   5.585E-04
1.476,   5.789E-04
1.478,   6.004E-04
1.48,   6.192E-04
1.482,   6.432E-04
1.484,   6.672E-04
1.486,   6.927E-04
1.488,   7.193E-04
1.49,   7.468E-04
1.492,   7.781E-04
1.494,   8.126E-04
1.496,   8.513E-04
1.498,   8.891E-04
1.5,   9.308E-04
1.502,   9.757E-04
1.504,   1.017E-03
1.506,   1.058E-03
1.508,   1.102E-03
1.51,   1.143E-03
1.512,   1.182E-03
1.514,   1.210E-03
1.516,   1.257E-03
1.518,   1.264E-03
1.52,   1.288E-03
1.522,   1.311E-03
1.524,   1.336E-03
1.526,   1.363E-03
1.528,   1.400E-03
1.53,   1.425E-03
1.532,   1.450E-03
1.534,   1.471E-03
1.536,   1.492E-03
1.538,   1.512E-03
1.54,   1.536E-03
1.542,   1.550E-03
1.544,   1.575E-03
1.546,   1.596E-03
1.548,   1.621E-03
1.55,   1.636E-03
1.552,   1.651E-03
1.554,   1.662E-03
1.556,   1.684E-03
1.558,   1.704E-03
1.56,   1.725E-03
1.562,   1.739E-03
1.564,   1.751E-03
1.566,   1.770E-03
1.568,   1.781E-03
1.57,   1.798E-03
1.572,   1.823E-03
1.574,   1.840E-03
1.576,   1.849E-03
1.578,   1.856E-03
1.58,   1.870E-03
1.582,   1.899E-03
1.584,   1.900E-03
1.586,   1.898E-03
1.588,   1.906E-03
1.59,   1.922E-03
1.592,   1.925E-03
1.594,   1.916E-03
1.596,   1.953E-03
1.598,   1.949E-03
1.6,   1.962E-03
1.602,   1.968E-03
1.604,   1.972E-03
1.606,   1.982E-03
1.607,   1.982E-03