Folder: DASH/Experimental Records, Raw Data, and Supplementary Notes and Figures/batch4/final400 (part 3)

File: B4_VARIANCE_400_#2_Full(#10)-362mV.txt
Mar. 27, 2023   15:12:38
Linear Sweep Voltammetry
File: d:\current work\al_oer\electrochemical test data\batch 4\400\B4_VARIANCE_400_#2_Full(#10)-362mV.txt
Data Source:  Experiment
Instrument Model:  CHI660E
Header:
Note:

Init E (V) = 1.099

Final E (V) = 1.698

Scan Rate (V/s) = 0.010
Sample Interval (V) = 0.001
Quiet Time (sec) = 2
Sensitivity (A/V) = 0.001
Comp R (ohm) = 5.3

Results:

Channel 1:
Ep = 1.449V
ip = 2.456e-3A
Ah = 4.678e-2C

Potential/V, Current/A
1.099,   1.226e-5
1.101,   1.121e-5
1.103,   1.009e-5
1.105,   9.189e-6
1.107,   8.417e-6
1.109,   7.878e-6
1.111,   7.322e-6
1.113,   6.881e-6
1.115,   6.496e-6
1.117,   6.194e-6
1.119,   5.871e-6
1.121,   5.624e-6
1.123,   5.396e-6
1.125,   5.216e-6
1.127,   5.040e-6
1.129,   4.885e-6
1.131,   4.754e-6
1.133,   4.647e-6
1.135,   4.545e-6
1.137,   4.442e-6
1.139,   4.355e-6
1.141,   4.274e-6
1.143,   4.210e-6
1.145,   4.138e-6
1.147,   4.087e-6
1.149,   4.032e-6
1.151,   3.973e-6
1.153,   3.936e-6
1.155,   3.910e-6
1.157,   3.882e-6
1.159,   3.826e-6
1.161,   3.826e-6
1.163,   3.786e-6
1.165,   3.782e-6
1.167,   3.762e-6
1.169,   3.735e-6
1.171,   3.734e-6
1.173,   3.739e-6
1.175,   3.706e-6
1.177,   3.697e-6
1.179,   3.678e-6
1.181,   3.687e-6
1.183,   3.679e-6
1.185,   3.678e-6
1.187,   3.668e-6
1.189,   3.658e-6
1.191,   3.670e-6
1.193,   3.668e-6
1.195,   3.691e-6
1.197,   3.676e-6
1.199,   3.665e-6
1.201,   3.676e-6
1.203,   3.679e-6
1.205,   3.674e-6
1.207,   3.701e-6
1.209,   3.712e-6
1.211,   3.700e-6
1.213,   3.746e-6
1.215,   3.739e-6
1.217,   3.734e-6
1.219,   3.739e-6
1.221,   3.753e-6
1.223,   3.776e-6
1.225,   3.762e-6
1.227,   3.769e-6
1.229,   3.803e-6
1.231,   3.819e-6
1.233,   3.805e-6
1.235,   3.826e-6
1.237,   3.849e-6
1.239,   3.847e-6
1.241,   3.862e-6
1.243,   3.876e-6
1.245,   3.918e-6
1.247,   3.918e-6
1.249,   3.907e-6
1.251,   3.940e-6
1.253,   3.949e-6
1.255,   3.966e-6
1.257,   3.980e-6
1.259,   3.978e-6
1.261,   4.026e-6
1.263,   4.043e-6
1.265,   4.066e-6
1.267,   4.085e-6
1.269,   4.088e-6
1.271,   4.094e-6
1.273,   4.133e-6
1.275,   4.150e-6
1.277,   4.187e-6
1.279,   4.205e-6
1.281,   4.216e-6
1.283,   4.234e-6
1.285,   4.276e-6
1.287,   4.320e-6
1.289,   4.315e-6
1.291,   4.350e-6
1.293,   4.385e-6
1.295,   4.416e-6
1.297,   4.425e-6
1.299,   4.470e-6
1.301,   4.496e-6
1.303,   4.517e-6
1.305,   4.576e-6
1.307,   4.600e-6
1.309,   4.649e-6
1.311,   4.652e-6
1.313,   4.706e-6
1.315,   4.718e-6
1.317,   4.778e-6
1.319,   4.812e-6
1.321,   4.868e-6
1.323,   4.896e-6
1.325,   4.955e-6
1.327,   4.974e-6
1.329,   5.025e-6
1.331,   5.074e-6
1.333,   5.107e-6
1.335,   5.180e-6
1.337,   5.206e-6
1.339,   5.250e-6
1.341,   5.298e-6
1.343,   5.378e-6
1.345,   5.405e-6
1.347,   5.474e-6
1.349,   5.518e-6
1.351,   5.586e-6
1.353,   5.643e-6
1.355,   5.707e-6
1.357,   5.767e-6
1.359,   5.821e-6
1.361,   5.928e-6
1.363,   5.983e-6
1.365,   6.085e-6
1.367,   6.181e-6
1.369,   6.257e-6
1.371,   6.377e-6
1.373,   6.470e-6
1.375,   6.589e-6
1.377,   6.709e-6
1.379,   6.837e-6
1.381,   6.996e-6
1.383,   7.150e-6
1.385,   7.338e-6
1.387,   7.516e-6
1.389,   7.735e-6
1.391,   7.964e-6
1.393,   8.261e-6
1.395,   8.548e-6
1.397,   8.877e-6
1.399,   9.277e-6
1.401,   9.690e-6
1.403,   1.019e-5
1.405,   1.075e-5
1.407,   1.134e-5
1.409,   1.205e-5
1.411,   1.281e-5
1.413,   1.366e-5
1.415,   1.459e-5
1.417,   1.564e-5
1.419,   1.684e-5
1.421,   1.813e-5
1.423,   1.959e-5
1.425,   2.124e-5
1.427,   2.304e-5
1.429,   2.506e-5
1.431,   2.728e-5
1.433,   2.971e-5
1.435,   3.245e-5
1.437,   3.548e-5
1.439,   3.864e-5
1.441,   4.227e-5
1.443,   4.627e-5
1.445,   5.069e-5
1.447,   5.554e-5
1.449,   6.085e-5
1.451,   6.667e-5
1.453,   7.308e-5
1.455,   8.017e-5
1.457,   8.777e-5
1.459,   9.604e-5
1.461,   1.050e-4
1.463,   1.147e-4
1.465,   1.252e-4
1.467,   1.364e-4
1.469,   1.484e-4
1.471,   1.613e-4
1.473,   1.749e-4
1.475,   1.893e-4
1.477,   2.044e-4
1.479,   2.205e-4
1.481,   2.374e-4
1.483,   2.551e-4
1.485,   2.736e-4
1.487,   2.929e-4
1.489,   3.127e-4
1.491,   3.335e-4
1.493,   3.549e-4
1.495,   3.771e-4
1.497,   4.001e-4
1.499,   4.237e-4
1.501,   4.479e-4
1.503,   4.727e-4
1.505,   4.981e-4
1.507,   5.239e-4
1.509,   5.501e-4
1.511,   5.772e-4
1.513,   6.047e-4
1.515,   6.328e-4
1.517,   6.614e-4
1.519,   6.904e-4
1.521,   7.198e-4
1.523,   7.492e-4
1.525,   7.791e-4
1.527,   8.099e-4
1.529,   8.407e-4
1.531,   8.723e-4
1.533,   9.039e-4
1.535,   9.359e-4
1.537,   9.684e-4
1.539,   1.001e-3
1.541,   1.034e-3
1.543,   1.067e-3
1.545,   1.102e-3
1.547,   1.136e-3
1.549,   1.171e-3
1.551,   1.206e-3
1.553,   1.241e-3
1.555,   1.277e-3
1.557,   1.313e-3
1.559,   1.350e-3
1.561,   1.387e-3
1.563,   1.424e-3
1.565,   1.460e-3
1.567,   1.497e-3
1.569,   1.533e-3
1.571,   1.571e-3
1.573,   1.608e-3
1.575,   1.645e-3
1.577,   1.681e-3
1.579,   1.718e-3
1.581,   1.756e-3
1.583,   1.792e-3
1.585,   1.830e-3
1.587,   1.866e-3
1.589,   1.900e-3
1.591,   1.935e-3
1.593,   1.969e-3
1.595,   2.003e-3
1.597,   2.035e-3
1.599,   2.067e-3
1.601,   2.096e-3
1.603,   2.127e-3
1.605,   2.154e-3
1.607,   2.183e-3
1.609,   2.215e-3
1.611,   2.240e-3
1.613,   2.264e-3
1.615,   2.287e-3
1.617,   2.309e-3
1.619,   2.332e-3
1.621,   2.352e-3
1.623,   2.372e-3
1.625,   2.389e-3
1.627,   2.407e-3
1.629,   2.418e-3
1.631,   2.433e-3
1.633,   2.442e-3
1.635,   2.453e-3
1.637,   2.462e-3
1.639,   2.470e-3
1.641,   2.483e-3
1.643,   2.487e-3
1.645,   2.497e-3
1.647,   2.536e-3
1.649,   2.533e-3
1.651,   2.527e-3
1.653,   2.523e-3
1.655,   2.517e-3
1.657,   2.511e-3
1.659,   2.507e-3
1.661,   2.499e-3
1.663,   2.488e-3
1.665,   2.479e-3
1.667,   2.470e-3
1.669,   2.458e-3
1.671,   2.445e-3
1.673,   2.433e-3
1.675,   2.420e-3
1.677,   2.405e-3
1.679,   2.388e-3
1.681,   2.373e-3
1.683,   2.357e-3
1.685,   2.339e-3
1.687,   2.321e-3
1.689,   2.303e-3
1.691,   2.287e-3
1.693,   2.268e-3
1.695,   2.249e-3
1.697,   2.230e-3
1.698,   2.221e-3

File: B4_VARIANCE_400_#2_High_Quality(#26)-357mV.txt
Mar. 26, 2023   15:21:29
Linear Sweep Voltammetry
File: d:\current work\al_oer\electrochemical test data\batch 4\400\B4_VARIANCE_400_#2_High_Quality(#26)-357mV.txt
Data Source:  Experiment
Instrument Model:  CHI660E
Header:
Note:

Init E (V) = 1.117

Final E (V) = 1.616

Scan Rate (V/s) = 0.010
Sample Interval (V) = 0.001
Quiet Time (sec) = 2
Sensitivity (A/V) = 0.001
Comp R (ohm) = 7.2

Results:

Channel 1:

Potential/V, Current/A
1.117,   -1.270e-6
1.119,   2.422e-7
1.121,   5.764e-7
1.123,   8.186e-7
1.125,   1.007e-6
1.127,   1.226e-6
1.129,   1.342e-6
1.131,   1.440e-6
1.133,   1.552e-6
1.135,   1.659e-6
1.137,   1.724e-6
1.139,   1.813e-6
1.141,   1.879e-6
1.143,   1.971e-6
1.145,   2.004e-6
1.147,   2.067e-6
1.149,   2.125e-6
1.151,   2.197e-6
1.153,   2.218e-6
1.155,   2.256e-6
1.157,   2.330e-6
1.159,   2.357e-6
1.161,   2.415e-6
1.163,   2.446e-6
1.165,   2.468e-6
1.167,   2.523e-6
1.169,   2.570e-6
1.171,   2.552e-6
1.173,   2.638e-6
1.175,   2.661e-6
1.177,   2.712e-6
1.179,   2.775e-6
1.181,   2.797e-6
1.183,   2.850e-6
1.185,   2.884e-6
1.187,   2.885e-6
1.189,   2.959e-6
1.191,   3.021e-6
1.193,   2.997e-6
1.195,   3.080e-6
1.197,   3.108e-6
1.199,   3.145e-6
1.201,   3.174e-6
1.203,   3.206e-6
1.205,   3.250e-6
1.207,   3.285e-6
1.209,   3.280e-6
1.211,   3.330e-6
1.213,   3.340e-6
1.215,   3.406e-6
1.217,   3.435e-6
1.219,   3.466e-6
1.221,   3.497e-6
1.223,   3.515e-6
1.225,   3.546e-6
1.227,   3.541e-6
1.229,   3.587e-6
1.231,   3.608e-6
1.233,   3.663e-6
1.235,   3.654e-6
1.237,   3.674e-6
1.239,   3.702e-6
1.241,   3.744e-6
1.243,   3.743e-6
1.245,   3.766e-6
1.247,   3.824e-6
1.249,   3.811e-6
1.251,   3.811e-6
1.253,   3.841e-6
1.255,   3.885e-6
1.257,   3.868e-6
1.259,   3.874e-6
1.261,   3.907e-6
1.263,   3.930e-6
1.265,   3.926e-6
1.267,   3.927e-6
1.269,   3.910e-6
1.271,   3.936e-6
1.273,   3.965e-6
1.275,   4.001e-6
1.277,   3.966e-6
1.279,   4.018e-6
1.281,   4.017e-6
1.283,   4.028e-6
1.285,   4.064e-6
1.287,   4.072e-6
1.289,   4.055e-6
1.291,   4.076e-6
1.293,   4.058e-6
1.295,   4.109e-6
1.297,   4.130e-6
1.299,   4.107e-6
1.301,   4.159e-6
1.303,   4.183e-6
1.305,   4.177e-6
1.307,   4.190e-6
1.309,   4.191e-6
1.311,   4.244e-6
1.313,   4.253e-6
1.315,   4.274e-6
1.317,   4.294e-6
1.319,   4.310e-6
1.321,   4.356e-6
1.323,   4.341e-6
1.325,   4.340e-6
1.327,   4.431e-6
1.329,   4.455e-6
1.331,   4.473e-6
1.333,   4.481e-6
1.335,   4.539e-6
1.337,   4.529e-6
1.339,   4.604e-6
1.341,   4.587e-6
1.343,   4.686e-6
1.345,   4.673e-6
1.347,   4.697e-6
1.349,   4.781e-6
1.351,   4.835e-6
1.353,   4.842e-6
1.355,   4.860e-6
1.357,   4.952e-6
1.359,   4.981e-6
1.361,   5.018e-6
1.363,   5.058e-6
1.365,   5.103e-6
1.367,   5.195e-6
1.369,   5.221e-6
1.371,   5.291e-6
1.373,   5.308e-6
1.375,   5.400e-6
1.377,   5.449e-6
1.379,   5.482e-6
1.381,   5.592e-6
1.383,   5.674e-6
1.385,   5.766e-6
1.387,   5.821e-6
1.389,   5.858e-6
1.391,   5.976e-6
1.393,   6.032e-6
1.395,   6.170e-6
1.397,   6.256e-6
1.399,   6.397e-6
1.401,   6.516e-6
1.403,   6.593e-6
1.405,   6.741e-6
1.407,   6.895e-6
1.409,   7.073e-6
1.411,   7.198e-6
1.413,   7.376e-6
1.415,   7.619e-6
1.417,   7.775e-6
1.419,   8.016e-6
1.421,   8.226e-6
1.423,   8.537e-6
1.425,   8.841e-6
1.427,   9.149e-6
1.429,   9.520e-6
1.431,   9.972e-6
1.433,   1.032e-5
1.435,   1.079e-5
1.437,   1.130e-5
1.439,   1.186e-5
1.441,   1.248e-5
1.443,   1.314e-5
1.445,   1.382e-5
1.447,   1.467e-5
1.449,   1.556e-5
1.451,   1.646e-5
1.453,   1.749e-5
1.455,   1.868e-5
1.457,   1.989e-5
1.459,   2.124e-5
1.461,   2.276e-5
1.463,   2.441e-5
1.465,   2.619e-5
1.467,   2.810e-5
1.469,   3.024e-5
1.471,   3.263e-5
1.473,   3.512e-5
1.475,   3.778e-5
1.477,   4.069e-5
1.479,   4.393e-5
1.481,   4.743e-5
1.483,   5.132e-5
1.485,   5.540e-5
1.487,   5.983e-5
1.489,   6.471e-5
1.491,   6.992e-5
1.493,   7.560e-5
1.495,   8.177e-5
1.497,   8.830e-5
1.499,   9.531e-5
1.501,   1.029e-4
1.503,   1.111e-4
1.505,   1.198e-4
1.507,   1.293e-4
1.509,   1.392e-4
1.511,   1.500e-4
1.513,   1.615e-4
1.515,   1.736e-4
1.517,   1.866e-4
1.519,   2.003e-4
1.521,   2.149e-4
1.523,   2.305e-4
1.525,   2.469e-4
1.527,   2.643e-4
1.529,   2.827e-4
1.531,   3.021e-4
1.533,   3.228e-4
1.535,   3.448e-4
1.537,   3.679e-4
1.539,   3.926e-4
1.541,   4.187e-4
1.543,   4.466e-4
1.545,   4.765e-4
1.547,   5.082e-4
1.549,   5.424e-4
1.551,   5.789e-4
1.553,   6.178e-4
1.555,   6.593e-4
1.557,   7.037e-4
1.559,   7.513e-4
1.561,   8.025e-4
1.563,   8.567e-4
1.565,   9.158e-4
1.567,   9.789e-4
1.569,   1.049e-3
1.571,   1.122e-3
1.573,   1.200e-3
1.575,   1.283e-3
1.577,   1.371e-3
1.579,   1.466e-3
1.581,   1.567e-3
1.583,   1.674e-3
1.585,   1.796e-3
1.587,   1.925e-3
1.589,   2.052e-3
1.591,   2.187e-3
1.593,   2.328e-3
1.595,   2.492e-3
1.597,   2.642e-3
1.599,   2.802e-3
1.601,   2.966e-3
1.603,   3.180e-3
1.605,   3.341e-3
1.607,   3.522e-3
1.609,   3.743e-3
1.611,   3.914e-3
1.613,   4.092e-3
1.615,   4.348e-3
1.616,   4.438e-3

File: B4_VARIANCE_400_#4_High_Quality(#28)-370mV.txt
Mar. 28, 2023   18:28:39
Linear Sweep Voltammetry
File: d:\current work\al_oer\electrochemical test data\batch 4\400\B4_VARIANCE_400_#4_High_Quality(#28)-370mV.txt
Data Source:  Experiment
Instrument Model:  CHI660E
Header:
Note:

Init E (V) = 1.189

Final E (V) = 1.688

Scan Rate (V/s) = 0.010
Sample Interval (V) = 0.001
Quiet Time (sec) = 2
Sensitivity (A/V) = 0.001
Comp R (ohm) = 10.0

Results:

Channel 1:

Potential/V, Current/A
1.189,   2.519e-6
1.191,   4.602e-6
1.193,   4.840e-6
1.195,   5.042e-6
1.197,   5.075e-6
1.199,   6.029e-6
1.201,   5.589e-6
1.203,   5.530e-6
1.205,   5.614e-6
1.207,   5.578e-6
1.209,   6.282e-6
1.211,   5.727e-6
1.213,   6.162e-6
1.215,   6.001e-6
1.217,   6.354e-6
1.219,   6.154e-6
1.221,   5.942e-6
1.223,   6.432e-6
1.225,   6.726e-6
1.227,   6.682e-6
1.229,   6.572e-6
1.231,   6.929e-6
1.233,   6.313e-6
1.235,   6.925e-6
1.237,   6.939e-6
1.239,   7.028e-6
1.241,   7.300e-6
1.243,   6.938e-6
1.245,   7.264e-6
1.247,   7.202e-6
1.249,   7.879e-6
1.251,   7.568e-6
1.253,   7.709e-6
1.255,   7.356e-6
1.257,   8.159e-6
1.259,   7.628e-6
1.261,   7.942e-6
1.263,   7.724e-6
1.265,   7.537e-6
1.267,   8.429e-6
1.269,   8.143e-6
1.271,   7.676e-6
1.273,   8.718e-6
1.275,   5.383e-6
1.277,   8.538e-6
1.279,   1.805e-5
1.281,   1.070e-5
1.283,   1.057e-5
1.285,   9.667e-6
1.287,   9.624e-6
1.289,   1.106e-5
1.291,   9.627e-6
1.293,   9.733e-6
1.295,   9.482e-6
1.297,   9.532e-6
1.299,   9.618e-6
1.301,   9.510e-6
1.303,   9.780e-6
1.305,   9.603e-6
1.307,   9.070e-6
1.309,   9.313e-6
1.311,   1.013e-5
1.313,   9.740e-6
1.315,   9.303e-6
1.317,   9.197e-6
1.319,   9.087e-6
1.321,   9.144e-6
1.323,   9.782e-6
1.325,   9.949e-6
1.327,   8.599e-6
1.329,   9.994e-6
1.331,   8.493e-6
1.333,   9.928e-6
1.335,   9.472e-6
1.337,   8.522e-6
1.339,   8.456e-6
1.341,   8.651e-6
1.343,   8.617e-6
1.345,   8.585e-6
1.347,   8.932e-6
1.349,   9.677e-6
1.351,   9.470e-6
1.353,   8.757e-6
1.355,   9.586e-6
1.357,   9.042e-6
1.359,   9.534e-6
1.361,   9.141e-6
1.363,   9.626e-6
1.365,   9.144e-6
1.367,   9.245e-6
1.369,   9.548e-6
1.371,   9.537e-6
1.373,   9.480e-6
1.375,   9.491e-6
1.377,   9.666e-6
1.379,   9.607e-6
1.381,   9.567e-6
1.383,   9.611e-6
1.385,   9.935e-6
1.387,   9.771e-6
1.389,   9.881e-6
1.391,   1.000e-5
1.393,   1.042e-5
1.395,   9.996e-6
1.397,   9.758e-6
1.399,   9.915e-6
1.401,   1.010e-5
1.403,   1.068e-5
1.405,   1.085e-5
1.407,   1.060e-5
1.409,   1.092e-5
1.411,   1.117e-5
1.413,   1.124e-5
1.415,   1.135e-5
1.417,   1.183e-5
1.419,   1.145e-5
1.421,   1.218e-5
1.423,   1.260e-5
1.425,   1.252e-5
1.427,   1.229e-5
1.429,   1.307e-5
1.431,   1.316e-5
1.433,   1.327e-5
1.435,   1.354e-5
1.437,   1.378e-5
1.439,   1.465e-5
1.441,   1.440e-5
1.443,   1.492e-5
1.445,   1.533e-5
1.447,   1.787e-5
1.449,   1.679e-5
1.451,   1.655e-5
1.453,   1.759e-5
1.455,   1.788e-5
1.457,   1.888e-5
1.459,   1.969e-5
1.461,   2.051e-5
1.463,   2.067e-5
1.465,   2.239e-5
1.467,   2.339e-5
1.469,   2.423e-5
1.471,   2.565e-5
1.473,   2.711e-5
1.475,   2.900e-5
1.477,   3.003e-5
1.479,   3.211e-5
1.481,   3.410e-5
1.483,   3.697e-5
1.485,   3.942e-5
1.487,   4.181e-5
1.489,   4.459e-5
1.491,   4.870e-5
1.493,   5.188e-5
1.495,   5.586e-5
1.497,   6.040e-5
1.499,   6.517e-5
1.501,   6.926e-5
1.503,   7.529e-5
1.505,   8.122e-5
1.507,   8.759e-5
1.509,   9.449e-5
1.511,   1.025e-4
1.513,   1.104e-4
1.515,   1.203e-4
1.517,   1.281e-4
1.519,   1.399e-4
1.521,   1.498e-4
1.523,   1.623e-4
1.525,   1.754e-4
1.527,   1.896e-4
1.529,   2.051e-4
1.531,   2.203e-4
1.533,   2.389e-4
1.535,   2.556e-4
1.537,   2.758e-4
1.539,   2.945e-4
1.541,   3.165e-4
1.543,   3.426e-4
1.545,   3.666e-4
1.547,   3.930e-4
1.549,   4.216e-4
1.551,   4.510e-4
1.553,   4.834e-4
1.555,   5.171e-4
1.557,   5.522e-4
1.559,   5.915e-4
1.561,   6.289e-4
1.563,   6.702e-4
1.565,   7.137e-4
1.567,   7.582e-4
1.569,   8.050e-4
1.571,   8.584e-4
1.573,   9.083e-4
1.575,   9.630e-4
1.577,   1.025e-3
1.579,   1.084e-3
1.581,   1.148e-3
1.583,   1.213e-3
1.585,   1.290e-3
1.587,   1.363e-3
1.589,   1.434e-3
1.591,   1.509e-3
1.593,   1.594e-3
1.595,   1.676e-3
1.597,   1.763e-3
1.599,   1.843e-3
1.601,   1.952e-3
1.603,   2.040e-3
1.605,   2.151e-3
1.607,   2.249e-3
1.609,   2.376e-3
1.611,   2.485e-3
1.613,   2.579e-3
1.615,   2.694e-3
1.617,   2.863e-3
1.619,   3.033e-3
1.621,   3.221e-3
1.623,   3.379e-3
1.625,   3.585e-3
1.627,   3.870e-3
1.629,   4.130e-3
1.631,   4.752e-3
1.633,   4.900e-3
1.635,   4.992e-3
1.637,   5.121e-3
1.639,   5.292e-3
1.641,   4.891e-3
1.643,   4.931e-3
1.645,   5.277e-3
1.647,   6.619e-3
1.649,   6.106e-3
1.651,   6.537e-3
1.653,   6.711e-3
1.655,   8.669e-3
1.657,   9.591e-3
1.659,   8.302e-3
1.661,   8.436e-3
1.663,   1.006e-2
1.665,   9.466e-3
1.667,   9.042e-3
1.669,   1.006e-2
1.671,   1.006e-2
1.673,   1.006e-2
1.675,   1.006e-2
1.677,   1.006e-2
1.679,   1.006e-2
1.681,   1.006e-2
1.683,   1.006e-2
1.685,   1.006e-2
1.687,   1.006e-2
1.688,   1.006e-2

File: B4_VARIANCE_400_#6_High_Quality(#30)-382mV.txt
Mar. 24, 2023   13:23:46
Linear Sweep Voltammetry
File: d:\current work\al_oer\electrochemical test data\batch 4\400\B4_VARIANCE_400_#6_High_Quality(#30)-382mV.txt
Data Source:  Experiment
Instrument Model:  CHI660E
Header:
Note:

Init E (V) = 1.201

Final E (V) = 1.700

Scan Rate (V/s) = 0.010
Sample Interval (V) = 0.001
Quiet Time (sec) = 2
Sensitivity (A/V) = 0.001
Comp R (ohm) = 6.2

Results:

Channel 1:

Potential/V, Current/A
1.201,   -2.103e-6
1.203,   9.161e-7
1.205,   1.643e-6
1.207,   2.109e-6
1.209,   2.481e-6
1.211,   2.765e-6
1.213,   2.992e-6
1.215,   3.190e-6
1.217,   3.370e-6
1.219,   3.422e-6
1.221,   3.694e-6
1.223,   3.810e-6
1.225,   3.925e-6
1.227,   4.069e-6
1.229,   4.146e-6
1.231,   4.256e-6
1.233,   4.355e-6
1.235,   4.492e-6
1.237,   4.602e-6
1.239,   4.649e-6
1.241,   4.742e-6
1.243,   4.846e-6
1.245,   4.933e-6
1.247,   4.997e-6
1.249,   5.102e-6
1.251,   5.193e-6
1.253,   5.241e-6
1.255,   5.343e-6
1.257,   5.412e-6
1.259,   5.522e-6
1.261,   5.594e-6
1.263,   5.651e-6
1.265,   5.754e-6
1.267,   5.854e-6
1.269,   5.933e-6
1.271,   5.986e-6
1.273,   6.095e-6
1.275,   6.177e-6
1.277,   6.269e-6
1.279,   6.291e-6
1.281,   6.390e-6
1.283,   6.494e-6
1.285,   6.548e-6
1.287,   6.589e-6
1.289,   6.716e-6
1.291,   6.755e-6
1.293,   6.845e-6
1.295,   6.879e-6
1.297,   6.961e-6
1.299,   7.059e-6
1.301,   7.089e-6
1.303,   7.131e-6
1.305,   7.183e-6
1.307,   7.278e-6
1.309,   7.318e-6
1.311,   7.385e-6
1.313,   7.409e-6
1.315,   7.504e-6
1.317,   7.554e-6
1.319,   7.521e-6
1.321,   7.569e-6
1.323,   7.640e-6
1.325,   7.680e-6
1.327,   7.688e-6
1.329,   7.731e-6
1.331,   7.790e-6
1.333,   7.801e-6
1.335,   7.806e-6
1.337,   7.839e-6
1.339,   7.871e-6
1.341,   7.881e-6
1.343,   7.906e-6
1.345,   7.919e-6
1.347,   7.970e-6
1.349,   7.978e-6
1.351,   7.950e-6
1.353,   7.981e-6
1.355,   8.025e-6
1.357,   8.010e-6
1.359,   8.008e-6
1.361,   7.990e-6
1.363,   8.059e-6
1.365,   8.055e-6
1.367,   8.033e-6
1.369,   8.054e-6
1.371,   8.077e-6
1.373,   8.081e-6
1.375,   8.089e-6
1.377,   8.078e-6
1.379,   8.101e-6
1.381,   8.113e-6
1.383,   8.082e-6
1.385,   8.116e-6
1.387,   8.134e-6
1.389,   8.131e-6
1.391,   8.143e-6
1.393,   8.145e-6
1.395,   8.190e-6
1.397,   8.199e-6
1.399,   8.148e-6
1.401,   8.217e-6
1.403,   8.243e-6
1.405,   8.265e-6
1.407,   8.268e-6
1.409,   8.254e-6
1.411,   8.324e-6
1.413,   8.345e-6
1.415,   8.338e-6
1.417,   8.378e-6
1.419,   8.433e-6
1.421,   8.470e-6
1.423,   8.463e-6
1.425,   8.512e-6
1.427,   8.640e-6
1.429,   8.631e-6
1.431,   8.653e-6
1.433,   8.688e-6
1.435,   8.802e-6
1.437,   8.853e-6
1.439,   8.924e-6
1.441,   8.970e-6
1.443,   9.055e-6
1.445,   9.150e-6
1.447,   9.222e-6
1.449,   9.298e-6
1.451,   9.449e-6
1.453,   9.557e-6
1.455,   9.646e-6
1.457,   9.779e-6
1.459,   9.956e-6
1.461,   1.007e-5
1.463,   1.024e-5
1.465,   1.046e-5
1.467,   1.063e-5
1.469,   1.084e-5
1.471,   1.106e-5
1.473,   1.133e-5
1.475,   1.159e-5
1.477,   1.194e-5
1.479,   1.224e-5
1.481,   1.264e-5
1.483,   1.307e-5
1.485,   1.351e-5
1.487,   1.400e-5
1.489,   1.455e-5
1.491,   1.528e-5
1.493,   1.591e-5
1.495,   1.666e-5
1.497,   1.753e-5
1.499,   1.849e-5
1.501,   1.951e-5
1.503,   2.071e-5
1.505,   2.194e-5
1.507,   2.346e-5
1.509,   2.502e-5
1.511,   2.678e-5
1.513,   2.871e-5
1.515,   3.091e-5
1.517,   3.333e-5
1.519,   3.594e-5
1.521,   3.876e-5
1.523,   4.207e-5
1.525,   4.562e-5
1.527,   4.950e-5
1.529,   5.389e-5
1.531,   5.870e-5
1.533,   6.395e-5
1.535,   6.971e-5
1.537,   7.611e-5
1.539,   8.331e-5
1.541,   9.103e-5
1.543,   9.937e-5
1.545,   1.087e-4
1.547,   1.190e-4
1.549,   1.303e-4
1.551,   1.425e-4
1.553,   1.560e-4
1.555,   1.709e-4
1.557,   1.870e-4
1.559,   2.045e-4
1.561,   2.238e-4
1.563,   2.450e-4
1.565,   2.681e-4
1.567,   2.933e-4
1.569,   3.207e-4
1.571,   3.508e-4
1.573,   3.832e-4
1.575,   4.187e-4
1.577,   4.572e-4
1.579,   4.996e-4
1.581,   5.453e-4
1.583,   5.944e-4
1.585,   6.482e-4
1.587,   7.063e-4
1.589,   7.686e-4
1.591,   8.358e-4
1.593,   9.086e-4
1.595,   9.870e-4
1.597,   1.071e-3
1.599,   1.160e-3
1.601,   1.256e-3
1.603,   1.361e-3
1.605,   1.470e-3
1.607,   1.586e-3
1.609,   1.704e-3
1.611,   1.836e-3
1.613,   1.975e-3
1.615,   2.114e-3
1.617,   2.279e-3
1.619,   2.443e-3
1.621,   2.603e-3
1.623,   2.770e-3
1.625,   2.944e-3
1.627,   3.131e-3
1.629,   3.338e-3
1.631,   3.534e-3
1.633,   3.733e-3
1.635,   3.937e-3
1.637,   4.155e-3
1.639,   4.366e-3
1.641,   4.603e-3
1.643,   4.820e-3
1.645,   5.050e-3
1.647,   5.242e-3
1.649,   5.478e-3
1.651,   5.741e-3
1.653,   5.932e-3
1.655,   6.244e-3
1.657,   6.464e-3
1.659,   6.704e-3
1.661,   6.956e-3
1.663,   7.277e-3
1.665,   7.469e-3
1.667,   7.642e-3
1.669,   8.119e-3
1.671,   8.340e-3
1.673,   8.533e-3
1.675,   8.719e-3
1.677,   9.070e-3
1.679,   9.443e-3
1.681,   9.821e-3
1.683,   9.864e-3
1.685,   1.006e-2
1.687,   1.006e-2
1.689,   1.006e-2
1.691,   1.006e-2
1.693,   1.006e-2
1.695,   1.006e-2
1.697,   1.006e-2
1.699,   1.006e-2
1.700,   1.006e-2