Folder: DASH/Experimental Records and Raw Data/batch1/final500

Note: README.md
# DASH
This is the online repository that stores code, data and supplementary figures of the research work: <Leveraging Data Mining, Active Learning, and Domain Adaptation in a Multi-Stage, Machine Learning-Driven Approach for the Efficient Discovery of Advanced Acidic Oxygen Evolution Electrocatalysts> by Rui Ding et. al. (https://arxiv.org/abs/2407.04877)
![Workflow Schematic](https://github.com/ruiding-uchicago/D.A.S.H./blob/main/Online%20Repository%20Figures/D.A.S.H.%20Workflow.jpg)
## Code Description

Our code is written and uploaded on GitHub in Jupyter notebook file format, which is already very easy to conduct and get results. Our code does not include providing a new python library, but users could track how we train machine learning models in Jupyter ipynb files. Also, we have provided all original dataset CSV files to drive the active learning flow. Additionally, we have detailed the python version and package environment used for this work, focusing on machine learning-related packages.

## Environment
This project was trained using Python version 3.9.12. Below is the list of machine learning-related packages and their versions used in this project on the local machine we used equipped with 2080 Ti GPU, users could install anaconda (https://www.anaconda.com/download) and using pip install to install the packages below for setting environment to run in the Jupyter notebook (https://docs.anaconda.com/ae-notebooks/user-guide/basic-tasks/apps/jupyter/index.html):

absl-py 1.2.0
ase 3.22.1
catboost 1.0.6
cython 0.29.28
dask 2022.2.1
deep-forest 0.1.7
gensim 4.1.2
h5py 3.6.0
keras 2.9.0
Keras-Preprocessing 1.1.2
keras-tcn 3.5.0
lightgbm 3.3.2
matplotlib 3.4.3
numpy 1.23.5
pandas 1.4.2
pytorch-lightning 2.0.1
pymatgen 2023.8.10
scikit-learn 1.0.2
scipy 1.8.0
scikit-opt  0.6.6
scikit-optimize 0.9.0
seaborn 0.11.2
tensorboard                  2.10.1
tensorboard-data-server      0.6.1
tensorboard-plugin-wit       1.8.1
tensorflow-estimator         2.10.0
tensorflow-gpu               2.10.0
tensorflow-io-gcs-filesystem 0.31.0
torch 2.0.0
torchvision 0.15.1
xgboost 1.6.2

File: B1_BEST_500_#1_High_Quality-237mV.txt
Dec. 14, 2022   14:20:27
Linear Sweep Voltammetry
File: d:\current work\al_oer\electrochemical test data\batch 1\500\B1_BEST_500_#1_High_Quality-237mV.txt
Data Source:  Experiment
Instrument Model:  CHI660E
Header:
Note:

Init E (V) = 1.088

Final E (V) = 1.550

Scan Rate (V/s) = 0.010
Sample Interval (V) = 0.001
Quiet Time (sec) = 2
Sensitivity (A/V) = 0.001
Comp R (ohm) = 6.1

Results:

Channel 1:

Potential/V, Current/A
1.088,   9.054e-5
1.090,   8.772e-5
1.092,   7.934e-5
1.094,   7.276e-5
1.096,   6.759e-5
1.098,   6.353e-5
1.100,   6.014e-5
1.102,   5.732e-5
1.104,   5.497e-5
1.106,   5.313e-5
1.108,   5.157e-5
1.110,   5.013e-5
1.112,   4.887e-5
1.114,   4.800e-5
1.116,   4.707e-5
1.118,   4.623e-5
1.120,   4.556e-5
1.122,   4.513e-5
1.124,   4.466e-5
1.126,   4.421e-5
1.128,   4.388e-5
1.130,   4.359e-5
1.132,   4.348e-5
1.134,   4.335e-5
1.136,   4.313e-5
1.138,   4.311e-5
1.140,   4.305e-5
1.142,   4.291e-5
1.144,   4.298e-5
1.146,   4.304e-5
1.148,   4.298e-5
1.150,   4.290e-5
1.152,   4.297e-5
1.154,   4.319e-5
1.156,   4.324e-5
1.158,   4.328e-5
1.160,   4.345e-5
1.162,   4.352e-5
1.164,   4.373e-5
1.166,   4.385e-5
1.168,   4.396e-5
1.170,   4.417e-5
1.172,   4.441e-5
1.174,   4.434e-5
1.176,   4.451e-5
1.178,   4.476e-5
1.180,   4.490e-5
1.182,   4.491e-5
1.184,   4.502e-5
1.186,   4.542e-5
1.188,   4.552e-5
1.190,   4.553e-5
1.192,   4.570e-5
1.194,   4.596e-5
1.196,   4.598e-5
1.198,   4.611e-5
1.200,   4.625e-5
1.202,   4.640e-5
1.204,   4.648e-5
1.206,   4.651e-5
1.208,   4.661e-5
1.210,   4.676e-5
1.212,   4.675e-5
1.214,   4.680e-5
1.216,   4.689e-5
1.218,   4.706e-5
1.220,   4.707e-5
1.222,   4.702e-5
1.224,   4.725e-5
1.226,   4.736e-5
1.228,   4.734e-5
1.230,   4.738e-5
1.232,   4.735e-5
1.234,   4.748e-5
1.236,   4.746e-5
1.238,   4.740e-5
1.240,   4.741e-5
1.242,   4.749e-5
1.244,   4.753e-5
1.246,   4.749e-5
1.248,   4.746e-5
1.250,   4.761e-5
1.252,   4.759e-5
1.254,   4.755e-5
1.256,   4.761e-5
1.258,   4.774e-5
1.260,   4.772e-5
1.262,   4.782e-5
1.264,   4.773e-5
1.266,   4.793e-5
1.268,   4.798e-5
1.270,   4.801e-5
1.272,   4.795e-5
1.274,   4.819e-5
1.276,   4.830e-5
1.278,   4.820e-5
1.280,   4.823e-5
1.282,   4.847e-5
1.284,   4.856e-5
1.286,   4.871e-5
1.288,   4.882e-5
1.290,   4.901e-5
1.292,   4.918e-5
1.294,   4.925e-5
1.296,   4.951e-5
1.298,   4.980e-5
1.300,   4.996e-5
1.302,   5.011e-5
1.304,   5.025e-5
1.306,   5.052e-5
1.308,   5.069e-5
1.310,   5.095e-5
1.312,   5.113e-5
1.314,   5.178e-5
1.316,   5.195e-5
1.318,   5.229e-5
1.320,   5.261e-5
1.322,   5.308e-5
1.324,   5.330e-5
1.326,   5.381e-5
1.328,   5.403e-5
1.330,   5.480e-5
1.332,   5.520e-5
1.334,   5.557e-5
1.336,   5.626e-5
1.338,   5.682e-5
1.340,   5.740e-5
1.342,   5.805e-5
1.344,   5.866e-5
1.346,   5.963e-5
1.348,   6.032e-5
1.350,   6.100e-5
1.352,   6.211e-5
1.354,   6.296e-5
1.356,   6.394e-5
1.358,   6.493e-5
1.360,   6.572e-5
1.362,   6.718e-5
1.364,   6.827e-5
1.366,   6.926e-5
1.368,   7.045e-5
1.370,   7.211e-5
1.372,   7.342e-5
1.374,   7.482e-5
1.376,   7.650e-5
1.378,   7.866e-5
1.380,   8.041e-5
1.382,   8.253e-5
1.384,   8.478e-5
1.386,   8.746e-5
1.388,   9.006e-5
1.390,   9.349e-5
1.392,   9.707e-5
1.394,   1.014e-4
1.396,   1.062e-4
1.398,   1.118e-4
1.400,   1.182e-4
1.402,   1.256e-4
1.404,   1.338e-4
1.406,   1.432e-4
1.408,   1.540e-4
1.410,   1.666e-4
1.412,   1.803e-4
1.414,   1.955e-4
1.416,   2.131e-4
1.418,   2.318e-4
1.420,   2.543e-4
1.422,   2.785e-4
1.424,   3.049e-4
1.426,   3.351e-4
1.428,   3.677e-4
1.430,   4.043e-4
1.432,   4.440e-4
1.434,   4.877e-4
1.436,   5.357e-4
1.438,   5.877e-4
1.440,   6.431e-4
1.442,   7.042e-4
1.444,   7.709e-4
1.446,   8.412e-4
1.448,   9.171e-4
1.450,   1.001e-3
1.452,   1.091e-3
1.454,   1.187e-3
1.456,   1.290e-3
1.458,   1.403e-3
1.460,   1.510e-3
1.462,   1.622e-3
1.464,   1.732e-3
1.466,   1.856e-3
1.468,   1.989e-3
1.470,   2.149e-3
1.472,   2.302e-3
1.474,   2.464e-3
1.476,   2.632e-3
1.478,   2.790e-3
1.480,   2.963e-3
1.482,   3.127e-3
1.484,   3.321e-3
1.486,   3.511e-3
1.488,   3.708e-3
1.490,   3.896e-3
1.492,   4.098e-3
1.494,   4.288e-3
1.496,   4.476e-3
1.498,   4.696e-3
1.500,   4.917e-3
1.502,   5.147e-3
1.504,   5.372e-3
1.506,   5.606e-3
1.508,   5.892e-3
1.510,   6.153e-3
1.512,   6.376e-3
1.514,   6.569e-3
1.516,   6.810e-3
1.518,   7.026e-3
1.520,   7.300e-3
1.522,   7.698e-3
1.524,   7.980e-3
1.526,   8.283e-3
1.528,   8.508e-3
1.530,   8.826e-3
1.532,   9.321e-3
1.534,   9.475e-3
1.536,   1.005e-2
1.538,   1.006e-2
1.540,   1.006e-2
1.542,   1.006e-2
1.544,   1.006e-2
1.546,   1.006e-2
1.548,   1.006e-2
1.550,   1.006e-2

File: B1_BEST_500_#3_Full-208mV.txt
Dec. 14, 2022   14:44:03
Linear Sweep Voltammetry
File: d:\current work\al_oer\electrochemical test data\batch 1\500\B1_BEST_500_#3_Full-208mV.txt
Data Source:  Experiment
Instrument Model:  CHI660E
Header:
Note:

Init E (V) = 1.091

Final E (V) = 1.520

Scan Rate (V/s) = 0.010
Sample Interval (V) = 0.001
Quiet Time (sec) = 2
Sensitivity (A/V) = 0.001
Comp R (ohm) = 6.4

Results:

Channel 1:

Potential/V, Current/A
1.091,   3.224e-4
1.093,   2.725e-4
1.095,   2.294e-4
1.097,   1.981e-4
1.099,   1.736e-4
1.101,   1.543e-4
1.103,   1.397e-4
1.105,   1.279e-4
1.107,   1.188e-4
1.109,   1.112e-4
1.111,   1.050e-4
1.113,   9.989e-5
1.115,   9.524e-5
1.117,   9.170e-5
1.119,   8.840e-5
1.121,   8.557e-5
1.123,   8.327e-5
1.125,   8.153e-5
1.127,   7.980e-5
1.129,   7.826e-5
1.131,   7.688e-5
1.133,   7.591e-5
1.135,   7.502e-5
1.137,   7.426e-5
1.139,   7.351e-5
1.141,   7.314e-5
1.143,   7.300e-5
1.145,   7.243e-5
1.147,   7.198e-5
1.149,   7.186e-5
1.151,   7.194e-5
1.153,   7.166e-5
1.155,   7.160e-5
1.157,   7.187e-5
1.159,   7.189e-5
1.161,   7.197e-5
1.163,   7.224e-5
1.165,   7.238e-5
1.167,   7.269e-5
1.169,   7.288e-5
1.171,   7.309e-5
1.173,   7.341e-5
1.175,   7.373e-5
1.177,   7.396e-5
1.179,   7.429e-5
1.181,   7.467e-5
1.183,   7.508e-5
1.185,   7.529e-5
1.187,   7.549e-5
1.189,   7.603e-5
1.191,   7.643e-5
1.193,   7.653e-5
1.195,   7.689e-5
1.197,   7.735e-5
1.199,   7.753e-5
1.201,   7.780e-5
1.203,   7.781e-5
1.205,   7.821e-5
1.207,   7.854e-5
1.209,   7.853e-5
1.211,   7.872e-5
1.213,   7.902e-5
1.215,   7.918e-5
1.217,   7.918e-5
1.219,   7.920e-5
1.221,   7.954e-5
1.223,   7.957e-5
1.225,   7.952e-5
1.227,   7.976e-5
1.229,   7.983e-5
1.231,   7.988e-5
1.233,   7.989e-5
1.235,   7.983e-5
1.237,   8.015e-5
1.239,   8.018e-5
1.241,   8.007e-5
1.243,   8.007e-5
1.245,   8.026e-5
1.247,   8.020e-5
1.249,   8.026e-5
1.251,   8.017e-5
1.253,   8.034e-5
1.255,   8.029e-5
1.257,   8.022e-5
1.259,   8.021e-5
1.261,   8.035e-5
1.263,   8.036e-5
1.265,   8.043e-5
1.267,   8.035e-5
1.269,   8.050e-5
1.271,   8.054e-5
1.273,   8.044e-5
1.275,   8.042e-5
1.277,   8.076e-5
1.279,   8.082e-5
1.281,   8.075e-5
1.283,   8.080e-5
1.285,   8.107e-5
1.287,   8.116e-5
1.289,   8.132e-5
1.291,   8.162e-5
1.293,   8.180e-5
1.295,   8.192e-5
1.297,   8.208e-5
1.299,   8.241e-5
1.301,   8.259e-5
1.303,   8.308e-5
1.305,   8.329e-5
1.307,   8.357e-5
1.309,   8.406e-5
1.311,   8.435e-5
1.313,   8.478e-5
1.315,   8.511e-5
1.317,   8.604e-5
1.319,   8.639e-5
1.321,   8.676e-5
1.323,   8.727e-5
1.325,   8.796e-5
1.327,   8.865e-5
1.329,   8.959e-5
1.331,   8.990e-5
1.333,   9.110e-5
1.335,   9.179e-5
1.337,   9.257e-5
1.339,   9.359e-5
1.341,   9.468e-5
1.343,   9.617e-5
1.345,   9.710e-5
1.347,   9.846e-5
1.349,   1.004e-4
1.351,   1.017e-4
1.353,   1.039e-4
1.355,   1.064e-4
1.357,   1.081e-4
1.359,   1.117e-4
1.361,   1.143e-4
1.363,   1.165e-4
1.365,   1.212e-4
1.367,   1.272e-4
1.369,   1.314e-4
1.371,   1.358e-4
1.373,   1.443e-4
1.375,   1.524e-4
1.377,   1.597e-4
1.379,   1.686e-4
1.381,   1.806e-4
1.383,   1.904e-4
1.385,   2.062e-4
1.387,   2.194e-4
1.389,   2.362e-4
1.391,   2.548e-4
1.393,   2.680e-4
1.395,   2.877e-4
1.397,   3.095e-4
1.399,   3.336e-4
1.401,   3.586e-4
1.403,   3.903e-4
1.405,   4.230e-4
1.407,   4.613e-4
1.409,   5.027e-4
1.411,   5.532e-4
1.413,   6.043e-4
1.415,   6.641e-4
1.417,   7.275e-4
1.419,   8.012e-4
1.421,   8.776e-4
1.423,   9.605e-4
1.425,   1.050e-3
1.427,   1.148e-3
1.429,   1.253e-3
1.431,   1.366e-3
1.433,   1.503e-3
1.435,   1.638e-3
1.437,   1.776e-3
1.439,   1.922e-3
1.441,   2.097e-3
1.443,   2.271e-3
1.445,   2.448e-3
1.447,   2.645e-3
1.449,   2.838e-3
1.451,   3.043e-3
1.453,   3.267e-3
1.455,   3.498e-3
1.457,   3.766e-3
1.459,   3.985e-3
1.461,   4.208e-3
1.463,   4.471e-3
1.465,   4.735e-3
1.467,   5.050e-3
1.469,   5.242e-3
1.471,   5.432e-3
1.473,   5.686e-3
1.475,   5.992e-3
1.477,   6.306e-3
1.479,   6.512e-3
1.481,   6.744e-3
1.483,   6.913e-3
1.485,   7.080e-3
1.487,   7.377e-3
1.489,   7.564e-3
1.491,   7.748e-3
1.493,   7.936e-3
1.495,   8.018e-3
1.497,   8.085e-3
1.499,   8.815e-3
1.501,   8.806e-3
1.503,   8.822e-3
1.505,   9.098e-3
1.507,   9.146e-3
1.509,   1.000e-2
1.511,   1.006e-2
1.513,   1.006e-2
1.515,   1.006e-2
1.517,   1.006e-2
1.519,   9.946e-3
1.520,   9.970e-3

File: B1_BEST_500_#10_High_Quality-240mV.txt
Dec. 14, 2022   15:20:12
Linear Sweep Voltammetry
File: d:\current work\al_oer\electrochemical test data\batch 1\500\B1_BEST_500_#10_High_Quality-240mV.txt
Data Source:  Experiment
Instrument Model:  CHI660E
Header:
Note:

Init E (V) = 1.096

Final E (V) = 1.539

Scan Rate (V/s) = 0.010
Sample Interval (V) = 0.001
Quiet Time (sec) = 2
Sensitivity (A/V) = 0.001
Comp R (ohm) = 5.6

Results:

Channel 1:

Potential/V, Current/A
1.096,   1.021e-4
1.098,   9.182e-5
1.100,   7.999e-5
1.102,   7.074e-5
1.104,   6.393e-5
1.106,   5.849e-5
1.108,   5.435e-5
1.110,   5.091e-5
1.112,   4.816e-5
1.114,   4.592e-5
1.116,   4.407e-5
1.118,   4.249e-5
1.120,   4.106e-5
1.122,   4.000e-5
1.124,   3.905e-5
1.126,   3.818e-5
1.128,   3.749e-5
1.130,   3.702e-5
1.132,   3.648e-5
1.134,   3.598e-5
1.136,   3.563e-5
1.138,   3.534e-5
1.140,   3.511e-5
1.142,   3.490e-5
1.144,   3.464e-5
1.146,   3.456e-5
1.148,   3.441e-5
1.150,   3.434e-5
1.152,   3.429e-5
1.154,   3.421e-5
1.156,   3.425e-5
1.158,   3.417e-5
1.160,   3.417e-5
1.162,   3.428e-5
1.164,   3.434e-5
1.166,   3.436e-5
1.168,   3.452e-5
1.170,   3.462e-5
1.172,   3.473e-5
1.174,   3.485e-5
1.176,   3.492e-5
1.178,   3.505e-5
1.180,   3.526e-5
1.182,   3.538e-5
1.184,   3.555e-5
1.186,   3.578e-5
1.188,   3.597e-5
1.190,   3.612e-5
1.192,   3.627e-5
1.194,   3.657e-5
1.196,   3.675e-5
1.198,   3.692e-5
1.200,   3.713e-5
1.202,   3.733e-5
1.204,   3.752e-5
1.206,   3.775e-5
1.208,   3.782e-5
1.210,   3.804e-5
1.212,   3.823e-5
1.214,   3.839e-5
1.216,   3.863e-5
1.218,   3.882e-5
1.220,   3.901e-5
1.222,   3.914e-5
1.224,   3.929e-5
1.226,   3.957e-5
1.228,   3.969e-5
1.230,   3.980e-5
1.232,   3.999e-5
1.234,   4.010e-5
1.236,   4.028e-5
1.238,   4.042e-5
1.240,   4.046e-5
1.242,   4.060e-5
1.244,   4.073e-5
1.246,   4.074e-5
1.248,   4.081e-5
1.250,   4.096e-5
1.252,   4.099e-5
1.254,   4.107e-5
1.256,   4.106e-5
1.258,   4.121e-5
1.260,   4.125e-5
1.262,   4.129e-5
1.264,   4.135e-5
1.266,   4.139e-5
1.268,   4.140e-5
1.270,   4.152e-5
1.272,   4.151e-5
1.274,   4.155e-5
1.276,   4.160e-5
1.278,   4.158e-5
1.280,   4.164e-5
1.282,   4.173e-5
1.284,   4.174e-5
1.286,   4.172e-5
1.288,   4.167e-5
1.290,   4.179e-5
1.292,   4.181e-5
1.294,   4.179e-5
1.296,   4.191e-5
1.298,   4.185e-5
1.300,   4.191e-5
1.302,   4.193e-5
1.304,   4.190e-5
1.306,   4.200e-5
1.308,   4.208e-5
1.310,   4.209e-5
1.312,   4.205e-5
1.314,   4.218e-5
1.316,   4.227e-5
1.318,   4.230e-5
1.320,   4.230e-5
1.322,   4.263e-5
1.324,   4.255e-5
1.326,   4.264e-5
1.328,   4.272e-5
1.330,   4.286e-5
1.332,   4.297e-5
1.334,   4.315e-5
1.336,   4.323e-5
1.338,   4.338e-5
1.340,   4.360e-5
1.342,   4.376e-5
1.344,   4.397e-5
1.346,   4.422e-5
1.348,   4.453e-5
1.350,   4.474e-5
1.352,   4.501e-5
1.354,   4.549e-5
1.356,   4.586e-5
1.358,   4.617e-5
1.360,   4.671e-5
1.362,   4.716e-5
1.364,   4.772e-5
1.366,   4.830e-5
1.368,   4.891e-5
1.370,   4.981e-5
1.372,   5.073e-5
1.374,   5.177e-5
1.376,   5.288e-5
1.378,   5.430e-5
1.380,   5.591e-5
1.382,   5.764e-5
1.384,   5.969e-5
1.386,   6.229e-5
1.388,   6.506e-5
1.390,   6.824e-5
1.392,   7.207e-5
1.394,   7.654e-5
1.396,   8.152e-5
1.398,   8.729e-5
1.400,   9.376e-5
1.402,   1.013e-4
1.404,   1.098e-4
1.406,   1.193e-4
1.408,   1.302e-4
1.410,   1.423e-4
1.412,   1.562e-4
1.414,   1.713e-4
1.416,   1.881e-4
1.418,   2.068e-4
1.420,   2.273e-4
1.422,   2.500e-4
1.424,   2.748e-4
1.426,   3.019e-4
1.428,   3.315e-4
1.430,   3.634e-4
1.432,   3.984e-4
1.434,   4.362e-4
1.436,   4.773e-4
1.438,   5.214e-4
1.440,   5.692e-4
1.442,   6.208e-4
1.444,   6.765e-4
1.446,   7.361e-4
1.448,   8.004e-4
1.450,   8.697e-4
1.452,   9.440e-4
1.454,   1.023e-3
1.456,   1.108e-3
1.458,   1.199e-3
1.460,   1.296e-3
1.462,   1.400e-3
1.464,   1.510e-3
1.466,   1.627e-3
1.468,   1.751e-3
1.470,   1.882e-3
1.472,   2.021e-3
1.474,   2.169e-3
1.476,   2.324e-3
1.478,   2.487e-3
1.480,   2.660e-3
1.482,   2.840e-3
1.484,   3.027e-3
1.486,   3.224e-3
1.488,   3.426e-3
1.490,   3.633e-3
1.492,   3.859e-3
1.494,   4.082e-3
1.496,   4.315e-3
1.498,   4.558e-3
1.500,   4.794e-3
1.502,   5.060e-3
1.504,   5.312e-3
1.506,   5.574e-3
1.508,   5.844e-3
1.510,   6.128e-3
1.512,   6.425e-3
1.514,   6.710e-3
1.516,   7.004e-3
1.518,   7.275e-3
1.520,   7.576e-3
1.522,   7.877e-3
1.524,   8.193e-3
1.526,   8.506e-3
1.528,   8.838e-3
1.530,   9.194e-3
1.532,   9.527e-3
1.534,   9.854e-3
1.536,   1.006e-2
1.538,   1.006e-2
1.539,   1.006e-2

File: B1_BEST_500_#16_High_Quality-227mV.txt
Dec. 14, 2022   15:52:20
Linear Sweep Voltammetry
File: d:\current work\al_oer\electrochemical test data\batch 1\500\B1_BEST_500_#16_High_Quality-227mV.txt
Data Source:  Experiment
Instrument Model:  CHI660E
Header:
Note:

Init E (V) = 1.092

Final E (V) = 1.509

Scan Rate (V/s) = 0.010
Sample Interval (V) = 0.001
Quiet Time (sec) = 2
Sensitivity (A/V) = 0.001
Comp R (ohm) = 5.8

Results:

Channel 1:

Potential/V, Current/A
1.092,   3.221e-5
1.094,   3.696e-5
1.096,   3.427e-5
1.098,   3.207e-5
1.100,   3.050e-5
1.102,   2.919e-5
1.104,   2.813e-5
1.106,   2.725e-5
1.108,   2.650e-5
1.110,   2.598e-5
1.112,   2.554e-5
1.114,   2.506e-5
1.116,   2.470e-5
1.118,   2.449e-5
1.120,   2.428e-5
1.122,   2.405e-5
1.124,   2.387e-5
1.126,   2.387e-5
1.128,   2.376e-5
1.130,   2.360e-5
1.132,   2.359e-5
1.134,   2.360e-5
1.136,   2.359e-5
1.138,   2.356e-5
1.140,   2.362e-5
1.142,   2.371e-5
1.144,   2.370e-5
1.146,   2.372e-5
1.148,   2.382e-5
1.150,   2.394e-5
1.152,   2.405e-5
1.154,   2.409e-5
1.156,   2.414e-5
1.158,   2.436e-5
1.160,   2.450e-5
1.162,   2.454e-5
1.164,   2.475e-5
1.166,   2.492e-5
1.168,   2.501e-5
1.170,   2.514e-5
1.172,   2.525e-5
1.174,   2.552e-5
1.176,   2.562e-5
1.178,   2.575e-5
1.180,   2.593e-5
1.182,   2.615e-5
1.184,   2.635e-5
1.186,   2.641e-5
1.188,   2.660e-5
1.190,   2.687e-5
1.192,   2.704e-5
1.194,   2.714e-5
1.196,   2.733e-5
1.198,   2.752e-5
1.200,   2.772e-5
1.202,   2.788e-5
1.204,   2.795e-5
1.206,   2.826e-5
1.208,   2.841e-5
1.210,   2.855e-5
1.212,   2.866e-5
1.214,   2.890e-5
1.216,   2.908e-5
1.218,   2.919e-5
1.220,   2.931e-5
1.222,   2.956e-5
1.224,   2.969e-5
1.226,   2.976e-5
1.228,   2.998e-5
1.230,   3.009e-5
1.232,   3.020e-5
1.234,   3.032e-5
1.236,   3.043e-5
1.238,   3.063e-5
1.240,   3.075e-5
1.242,   3.077e-5
1.244,   3.085e-5
1.246,   3.106e-5
1.248,   3.114e-5
1.250,   3.119e-5
1.252,   3.124e-5
1.254,   3.151e-5
1.256,   3.153e-5
1.258,   3.154e-5
1.260,   3.167e-5
1.262,   3.180e-5
1.264,   3.189e-5
1.266,   3.197e-5
1.268,   3.196e-5
1.270,   3.212e-5
1.272,   3.219e-5
1.274,   3.221e-5
1.276,   3.226e-5
1.278,   3.240e-5
1.280,   3.246e-5
1.282,   3.244e-5
1.284,   3.248e-5
1.286,   3.276e-5
1.288,   3.271e-5
1.290,   3.273e-5
1.292,   3.287e-5
1.294,   3.291e-5
1.296,   3.301e-5
1.298,   3.302e-5
1.300,   3.305e-5
1.302,   3.327e-5
1.304,   3.324e-5
1.306,   3.324e-5
1.308,   3.334e-5
1.310,   3.350e-5
1.312,   3.361e-5
1.314,   3.358e-5
1.316,   3.368e-5
1.318,   3.405e-5
1.320,   3.403e-5
1.322,   3.406e-5
1.324,   3.417e-5
1.326,   3.440e-5
1.328,   3.459e-5
1.330,   3.461e-5
1.332,   3.473e-5
1.334,   3.503e-5
1.336,   3.517e-5
1.338,   3.522e-5
1.340,   3.545e-5
1.342,   3.571e-5
1.344,   3.592e-5
1.346,   3.614e-5
1.348,   3.642e-5
1.350,   3.684e-5
1.352,   3.714e-5
1.354,   3.741e-5
1.356,   3.782e-5
1.358,   3.823e-5
1.360,   3.863e-5
1.362,   3.920e-5
1.364,   3.978e-5
1.366,   4.061e-5
1.368,   4.143e-5
1.370,   4.227e-5
1.372,   4.337e-5
1.374,   4.508e-5
1.376,   4.603e-5
1.378,   4.769e-5
1.380,   4.951e-5
1.382,   5.188e-5
1.384,   5.443e-5
1.386,   5.728e-5
1.388,   6.089e-5
1.390,   6.508e-5
1.392,   6.976e-5
1.394,   7.524e-5
1.396,   8.160e-5
1.398,   8.903e-5
1.400,   9.733e-5
1.402,   1.068e-4
1.404,   1.177e-4
1.406,   1.304e-4
1.408,   1.445e-4
1.410,   1.606e-4
1.412,   1.786e-4
1.414,   1.990e-4
1.416,   2.217e-4
1.418,   2.474e-4
1.420,   2.760e-4
1.422,   3.080e-4
1.424,   3.434e-4
1.426,   3.825e-4
1.428,   4.261e-4
1.430,   4.746e-4
1.432,   5.279e-4
1.434,   5.868e-4
1.436,   6.519e-4
1.438,   7.237e-4
1.440,   8.025e-4
1.442,   8.889e-4
1.444,   9.839e-4
1.446,   1.089e-3
1.448,   1.202e-3
1.450,   1.326e-3
1.452,   1.462e-3
1.454,   1.610e-3
1.456,   1.772e-3
1.458,   1.945e-3
1.460,   2.135e-3
1.462,   2.337e-3
1.464,   2.557e-3
1.466,   2.788e-3
1.468,   3.060e-3
1.470,   3.332e-3
1.472,   3.615e-3
1.474,   3.913e-3
1.476,   4.225e-3
1.478,   4.553e-3
1.480,   4.874e-3
1.482,   5.249e-3
1.484,   5.629e-3
1.486,   6.056e-3
1.488,   6.416e-3
1.490,   6.730e-3
1.492,   7.181e-3
1.494,   7.536e-3
1.496,   7.945e-3
1.498,   8.317e-3
1.500,   8.650e-3
1.502,   9.159e-3
1.504,   9.494e-3
1.506,   1.006e-2
1.508,   1.006e-2
1.509,   1.006e-2

File: B1_BEST_500_#17_High_Quality-235mV.txt
Dec. 12, 2022   16:44:03
Linear Sweep Voltammetry
File: d:\current work\al_oer\electrochemical test data\batch 1\500\B1_BEST_500_#17_High_Quality-235mV.txt
Data Source:  Experiment
Instrument Model:  CHI660E
Header:
Note:

Init E (V) = 1.085

Final E (V) = 1.532

Scan Rate (V/s) = 0.010
Sample Interval (V) = 0.001
Quiet Time (sec) = 2
Sensitivity (A/V) = 0.001
Comp R (ohm) = 5.0

Results:

Channel 1:

Potential/V, Current/A
1.085,   5.914e-5
1.087,   5.729e-5
1.089,   5.176e-5
1.091,   4.721e-5
1.093,   4.379e-5
1.095,   4.114e-5
1.097,   3.877e-5
1.099,   3.700e-5
1.101,   3.538e-5
1.103,   3.405e-5
1.105,   3.294e-5
1.107,   3.179e-5
1.109,   3.093e-5
1.111,   3.017e-5
1.113,   2.946e-5
1.115,   2.886e-5
1.117,   2.830e-5
1.119,   2.797e-5
1.121,   2.752e-5
1.123,   2.712e-5
1.125,   2.691e-5
1.127,   2.668e-5
1.129,   2.640e-5
1.131,   2.622e-5
1.133,   2.601e-5
1.135,   2.605e-5
1.137,   2.595e-5
1.139,   2.578e-5
1.141,   2.571e-5
1.143,   2.569e-5
1.145,   2.562e-5
1.147,   2.552e-5
1.149,   2.550e-5
1.151,   2.565e-5
1.153,   2.570e-5
1.155,   2.569e-5
1.157,   2.584e-5
1.159,   2.593e-5
1.161,   2.599e-5
1.163,   2.613e-5
1.165,   2.619e-5
1.167,   2.639e-5
1.169,   2.648e-5
1.171,   2.655e-5
1.173,   2.667e-5
1.175,   2.690e-5
1.177,   2.708e-5
1.179,   2.712e-5
1.181,   2.751e-5
1.183,   2.756e-5
1.185,   2.762e-5
1.187,   2.764e-5
1.189,   2.791e-5
1.191,   2.809e-5
1.193,   2.813e-5
1.195,   2.835e-5
1.197,   2.847e-5
1.199,   2.867e-5
1.201,   2.876e-5
1.203,   2.882e-5
1.205,   2.895e-5
1.207,   2.913e-5
1.209,   2.924e-5
1.211,   2.923e-5
1.213,   2.934e-5
1.215,   2.952e-5
1.217,   2.958e-5
1.219,   2.955e-5
1.221,   2.980e-5
1.223,   2.980e-5
1.225,   2.976e-5
1.227,   2.983e-5
1.229,   2.982e-5
1.231,   2.993e-5
1.233,   2.992e-5
1.235,   2.985e-5
1.237,   2.982e-5
1.239,   2.991e-5
1.241,   2.994e-5
1.243,   2.994e-5
1.245,   2.992e-5
1.247,   3.007e-5
1.249,   3.003e-5
1.251,   3.003e-5
1.253,   3.008e-5
1.255,   3.006e-5
1.257,   3.014e-5
1.259,   3.010e-5
1.261,   3.010e-5
1.263,   3.021e-5
1.265,   3.026e-5
1.267,   3.023e-5
1.269,   3.033e-5
1.271,   3.043e-5
1.273,   3.048e-5
1.275,   3.051e-5
1.277,   3.046e-5
1.279,   3.068e-5
1.281,   3.068e-5
1.283,   3.068e-5
1.285,   3.091e-5
1.287,   3.093e-5
1.289,   3.106e-5
1.291,   3.115e-5
1.293,   3.117e-5
1.295,   3.148e-5
1.297,   3.161e-5
1.299,   3.167e-5
1.301,   3.185e-5
1.303,   3.209e-5
1.305,   3.220e-5
1.307,   3.233e-5
1.309,   3.249e-5
1.311,   3.286e-5
1.313,   3.292e-5
1.315,   3.302e-5
1.317,   3.327e-5
1.319,   3.357e-5
1.321,   3.370e-5
1.323,   3.397e-5
1.325,   3.402e-5
1.327,   3.446e-5
1.329,   3.466e-5
1.331,   3.481e-5
1.333,   3.508e-5
1.335,   3.543e-5
1.337,   3.571e-5
1.339,   3.597e-5
1.341,   3.619e-5
1.343,   3.669e-5
1.345,   3.696e-5
1.347,   3.721e-5
1.349,   3.762e-5
1.351,   3.804e-5
1.353,   3.836e-5
1.355,   3.884e-5
1.357,   3.931e-5
1.359,   4.000e-5
1.361,   4.054e-5
1.363,   4.107e-5
1.365,   4.191e-5
1.367,   4.280e-5
1.369,   4.362e-5
1.371,   4.473e-5
1.373,   4.594e-5
1.375,   4.736e-5
1.377,   4.885e-5
1.379,   5.031e-5
1.381,   5.228e-5
1.383,   5.445e-5
1.385,   5.667e-5
1.387,   5.936e-5
1.389,   6.216e-5
1.391,   6.573e-5
1.393,   6.954e-5
1.395,   7.358e-5
1.397,   7.850e-5
1.399,   8.415e-5
1.401,   9.027e-5
1.403,   9.714e-5
1.405,   1.047e-4
1.407,   1.136e-4
1.409,   1.231e-4
1.411,   1.339e-4
1.413,   1.459e-4
1.415,   1.597e-4
1.417,   1.747e-4
1.419,   1.914e-4
1.421,   2.100e-4
1.423,   2.312e-4
1.425,   2.543e-4
1.427,   2.804e-4
1.429,   3.093e-4
1.431,   3.416e-4
1.433,   3.773e-4
1.435,   4.170e-4
1.437,   4.614e-4
1.439,   5.109e-4
1.441,   5.657e-4
1.443,   6.256e-4
1.445,   6.926e-4
1.447,   7.670e-4
1.449,   8.485e-4
1.451,   9.382e-4
1.453,   1.037e-3
1.455,   1.146e-3
1.457,   1.265e-3
1.459,   1.393e-3
1.461,   1.534e-3
1.463,   1.686e-3
1.465,   1.851e-3
1.467,   2.028e-3
1.469,   2.217e-3
1.471,   2.419e-3
1.473,   2.635e-3
1.475,   2.861e-3
1.477,   3.100e-3
1.479,   3.372e-3
1.481,   3.628e-3
1.483,   3.894e-3
1.485,   4.165e-3
1.487,   4.446e-3
1.489,   4.739e-3
1.491,   5.042e-3
1.493,   5.343e-3
1.495,   5.632e-3
1.497,   5.925e-3
1.499,   6.236e-3
1.501,   6.536e-3
1.503,   6.825e-3
1.505,   7.138e-3
1.507,   7.443e-3
1.509,   7.733e-3
1.511,   8.060e-3
1.513,   8.377e-3
1.515,   8.803e-3
1.517,   9.394e-3
1.519,   9.842e-3
1.521,   1.006e-2
1.523,   1.006e-2
1.525,   1.006e-2
1.527,   1.006e-2
1.529,   1.006e-2
1.531,   1.006e-2
1.532,   1.006e-2