Folder: DASH/Experimental Records and Raw Data/batch1/final400

Note: README.md
# DASH
This is the online repository that stores code, data and supplementary figures of the research work: <Leveraging Data Mining, Active Learning, and Domain Adaptation in a Multi-Stage, Machine Learning-Driven Approach for the Efficient Discovery of Advanced Acidic Oxygen Evolution Electrocatalysts> by Rui Ding et. al. (https://arxiv.org/abs/2407.04877)
![Workflow Schematic](https://github.com/ruiding-uchicago/D.A.S.H./blob/main/Online%20Repository%20Figures/D.A.S.H.%20Workflow.jpg)
## Code Description

Our code is written and uploaded on GitHub in Jupyter notebook file format, which is already very easy to conduct and get results. Our code does not include providing a new python library, but users could track how we train machine learning models in Jupyter ipynb files. Also, we have provided all original dataset CSV files to drive the active learning flow. Additionally, we have detailed the python version and package environment used for this work, focusing on machine learning-related packages.

## Environment
This project was trained using Python version 3.9.12. Below is the list of machine learning-related packages and their versions used in this project on the local machine we used equipped with 2080 Ti GPU, users could install anaconda (https://www.anaconda.com/download) and using pip install to install the packages below for setting environment to run in the Jupyter notebook (https://docs.anaconda.com/ae-notebooks/user-guide/basic-tasks/apps/jupyter/index.html):

absl-py 1.2.0
ase 3.22.1
catboost 1.0.6
cython 0.29.28
dask 2022.2.1
deep-forest 0.1.7
gensim 4.1.2
h5py 3.6.0
keras 2.9.0
Keras-Preprocessing 1.1.2
keras-tcn 3.5.0
lightgbm 3.3.2
matplotlib 3.4.3
numpy 1.23.5
pandas 1.4.2
pytorch-lightning 2.0.1
pymatgen 2023.8.10
scikit-learn 1.0.2
scipy 1.8.0
scikit-opt  0.6.6
scikit-optimize 0.9.0
seaborn 0.11.2
tensorboard                  2.10.1
tensorboard-data-server      0.6.1
tensorboard-plugin-wit       1.8.1
tensorflow-estimator         2.10.0
tensorflow-gpu               2.10.0
tensorflow-io-gcs-filesystem 0.31.0
torch 2.0.0
torchvision 0.15.1
xgboost 1.6.2

File: B1_BEST_400_#1_High_Quality-318mV.txt
Dec. 6, 2022   16:09:15
Linear Sweep Voltammetry
File: d:\current work\al_oer\electrochemical test data\batch 1\400\B1_BEST_400_#1_High_Quality-318mV.txt
Data Source:  Experiment
Instrument Model:  CHI660E
Header:
Note:

Init E (V) = 1.090

Final E (V) = 1.619

Scan Rate (V/s) = 0.010
Sample Interval (V) = 0.001
Quiet Time (sec) = 2
Sensitivity (A/V) = 0.001
Comp R (ohm) = 4.7

Results:

Channel 1:

Potential/V, Current/A
1.090,   2.233e-5
1.092,   2.034e-5
1.094,   1.831e-5
1.096,   1.670e-5
1.098,   1.546e-5
1.100,   1.438e-5
1.102,   1.350e-5
1.104,   1.273e-5
1.106,   1.209e-5
1.108,   1.154e-5
1.110,   1.109e-5
1.112,   1.064e-5
1.114,   1.031e-5
1.116,   9.976e-6
1.118,   9.672e-6
1.120,   9.434e-6
1.122,   9.221e-6
1.124,   9.014e-6
1.126,   8.848e-6
1.128,   8.634e-6
1.130,   8.485e-6
1.132,   8.395e-6
1.134,   8.267e-6
1.136,   8.146e-6
1.138,   8.062e-6
1.140,   7.967e-6
1.142,   7.891e-6
1.144,   7.825e-6
1.146,   7.758e-6
1.148,   7.709e-6
1.150,   7.633e-6
1.152,   7.620e-6
1.154,   7.552e-6
1.156,   7.562e-6
1.158,   7.519e-6
1.160,   7.466e-6
1.162,   7.501e-6
1.164,   7.446e-6
1.166,   7.463e-6
1.168,   7.431e-6
1.170,   7.416e-6
1.172,   7.453e-6
1.174,   7.423e-6
1.176,   7.447e-6
1.178,   7.433e-6
1.180,   7.451e-6
1.182,   7.485e-6
1.184,   7.473e-6
1.186,   7.516e-6
1.188,   7.562e-6
1.190,   7.532e-6
1.192,   7.565e-6
1.194,   7.591e-6
1.196,   7.615e-6
1.198,   7.643e-6
1.200,   7.672e-6
1.202,   7.676e-6
1.204,   7.706e-6
1.206,   7.760e-6
1.208,   7.804e-6
1.210,   7.810e-6
1.212,   7.857e-6
1.214,   7.894e-6
1.216,   7.938e-6
1.218,   7.992e-6
1.220,   8.061e-6
1.222,   8.098e-6
1.224,   8.089e-6
1.226,   8.139e-6
1.228,   8.203e-6
1.230,   8.243e-6
1.232,   8.258e-6
1.234,   8.308e-6
1.236,   8.355e-6
1.238,   8.411e-6
1.240,   8.428e-6
1.242,   8.527e-6
1.244,   8.549e-6
1.246,   8.590e-6
1.248,   8.639e-6
1.250,   8.705e-6
1.252,   8.754e-6
1.254,   8.798e-6
1.256,   8.846e-6
1.258,   8.898e-6
1.260,   8.977e-6
1.262,   8.990e-6
1.264,   9.060e-6
1.266,   9.131e-6
1.268,   9.153e-6
1.270,   9.217e-6
1.272,   9.276e-6
1.274,   9.282e-6
1.276,   9.378e-6
1.278,   9.446e-6
1.280,   9.495e-6
1.282,   9.546e-6
1.284,   9.591e-6
1.286,   9.652e-6
1.288,   9.740e-6
1.290,   9.801e-6
1.292,   9.863e-6
1.294,   9.910e-6
1.296,   9.980e-6
1.298,   1.007e-5
1.300,   1.013e-5
1.302,   1.022e-5
1.304,   1.026e-5
1.306,   1.032e-5
1.308,   1.042e-5
1.310,   1.049e-5
1.312,   1.059e-5
1.314,   1.066e-5
1.316,   1.078e-5
1.318,   1.086e-5
1.320,   1.093e-5
1.322,   1.101e-5
1.324,   1.110e-5
1.326,   1.117e-5
1.328,   1.125e-5
1.330,   1.139e-5
1.332,   1.147e-5
1.334,   1.158e-5
1.336,   1.167e-5
1.338,   1.179e-5
1.340,   1.189e-5
1.342,   1.205e-5
1.344,   1.215e-5
1.346,   1.220e-5
1.348,   1.236e-5
1.350,   1.249e-5
1.352,   1.260e-5
1.354,   1.274e-5
1.356,   1.290e-5
1.358,   1.304e-5
1.360,   1.321e-5
1.362,   1.338e-5
1.364,   1.357e-5
1.366,   1.373e-5
1.368,   1.394e-5
1.370,   1.416e-5
1.372,   1.443e-5
1.374,   1.467e-5
1.376,   1.497e-5
1.378,   1.528e-5
1.380,   1.559e-5
1.382,   1.598e-5
1.384,   1.638e-5
1.386,   1.686e-5
1.388,   1.737e-5
1.390,   1.789e-5
1.392,   1.856e-5
1.394,   1.926e-5
1.396,   2.004e-5
1.398,   2.097e-5
1.400,   2.192e-5
1.402,   2.304e-5
1.404,   2.423e-5
1.406,   2.562e-5
1.408,   2.709e-5
1.410,   2.877e-5
1.412,   3.062e-5
1.414,   3.262e-5
1.416,   3.489e-5
1.418,   3.739e-5
1.420,   4.006e-5
1.422,   4.309e-5
1.424,   4.634e-5
1.426,   4.989e-5
1.428,   5.377e-5
1.430,   5.805e-5
1.432,   6.264e-5
1.434,   6.773e-5
1.436,   7.328e-5
1.438,   7.936e-5
1.440,   8.585e-5
1.442,   9.295e-5
1.444,   1.006e-4
1.446,   1.089e-4
1.448,   1.179e-4
1.450,   1.276e-4
1.452,   1.381e-4
1.454,   1.494e-4
1.456,   1.615e-4
1.458,   1.745e-4
1.460,   1.886e-4
1.462,   2.036e-4
1.464,   2.196e-4
1.466,   2.368e-4
1.468,   2.552e-4
1.470,   2.749e-4
1.472,   2.957e-4
1.474,   3.178e-4
1.476,   3.413e-4
1.478,   3.657e-4
1.480,   3.916e-4
1.482,   4.188e-4
1.484,   4.474e-4
1.486,   4.776e-4
1.488,   5.088e-4
1.490,   5.420e-4
1.492,   5.764e-4
1.494,   6.121e-4
1.496,   6.489e-4
1.498,   6.872e-4
1.500,   7.271e-4
1.502,   7.680e-4
1.504,   8.104e-4
1.506,   8.538e-4
1.508,   8.987e-4
1.510,   9.446e-4
1.512,   9.920e-4
1.514,   1.039e-3
1.516,   1.088e-3
1.518,   1.137e-3
1.520,   1.187e-3
1.522,   1.239e-3
1.524,   1.291e-3
1.526,   1.344e-3
1.528,   1.397e-3
1.530,   1.450e-3
1.532,   1.505e-3
1.534,   1.559e-3
1.536,   1.613e-3
1.538,   1.668e-3
1.540,   1.723e-3
1.542,   1.778e-3
1.544,   1.832e-3
1.546,   1.887e-3
1.548,   1.942e-3
1.550,   1.996e-3
1.552,   2.050e-3
1.554,   2.102e-3
1.556,   2.155e-3
1.558,   2.208e-3
1.560,   2.258e-3
1.562,   2.309e-3
1.564,   2.359e-3
1.566,   2.408e-3
1.568,   2.457e-3
1.570,   2.503e-3
1.572,   2.549e-3
1.574,   2.592e-3
1.576,   2.638e-3
1.578,   2.680e-3
1.580,   2.719e-3
1.582,   2.759e-3
1.584,   2.797e-3
1.586,   2.831e-3
1.588,   2.865e-3
1.590,   2.898e-3
1.592,   2.928e-3
1.594,   2.961e-3
1.596,   2.989e-3
1.598,   3.015e-3
1.600,   3.038e-3
1.602,   3.060e-3
1.604,   3.079e-3
1.606,   3.100e-3
1.608,   3.116e-3
1.610,   3.131e-3
1.612,   3.144e-3
1.614,   3.155e-3
1.616,   3.165e-3
1.618,   3.172e-3
1.619,   3.176e-3

File: B1_BEST_400_#8_High_Quality-223mV.txt
Dec. 8, 2022   16:34:17
Linear Sweep Voltammetry
File: d:\current work\al_oer\electrochemical test data\batch 1\400\B1_BEST_400_#8_High_Quality-223mV.txt
Data Source:  Experiment
Instrument Model:  CHI660E
Header:
Note:

Init E (V) = 1.091

Final E (V) = 1.510

Scan Rate (V/s) = 0.010
Sample Interval (V) = 0.001
Quiet Time (sec) = 2
Sensitivity (A/V) = 0.001
Comp R (ohm) = 10.0

Results:

Channel 1:

Potential/V, Current/A
1.091,   6.654e-5
1.093,   5.997e-5
1.095,   5.314e-5
1.097,   4.694e-5
1.099,   4.272e-5
1.101,   3.941e-5
1.103,   3.597e-5
1.105,   3.444e-5
1.107,   3.243e-5
1.109,   3.092e-5
1.111,   2.982e-5
1.113,   2.844e-5
1.115,   2.766e-5
1.117,   2.688e-5
1.119,   2.624e-5
1.121,   2.557e-5
1.123,   2.514e-5
1.125,   2.482e-5
1.127,   2.409e-5
1.129,   2.384e-5
1.131,   2.372e-5
1.133,   2.314e-5
1.135,   2.329e-5
1.137,   2.319e-5
1.139,   2.272e-5
1.141,   2.319e-5
1.143,   2.273e-5
1.145,   2.241e-5
1.147,   2.239e-5
1.149,   2.278e-5
1.151,   2.251e-5
1.153,   2.223e-5
1.155,   2.239e-5
1.157,   2.234e-5
1.159,   2.233e-5
1.161,   2.231e-5
1.163,   2.231e-5
1.165,   2.234e-5
1.167,   2.239e-5
1.169,   2.267e-5
1.171,   2.223e-5
1.173,   2.226e-5
1.175,   2.255e-5
1.177,   2.254e-5
1.179,   2.233e-5
1.181,   2.288e-5
1.183,   2.246e-5
1.185,   2.277e-5
1.187,   2.270e-5
1.189,   2.277e-5
1.191,   2.293e-5
1.193,   2.295e-5
1.195,   2.278e-5
1.197,   2.362e-5
1.199,   2.290e-5
1.201,   2.367e-5
1.203,   2.365e-5
1.205,   2.424e-5
1.207,   2.407e-5
1.209,   2.348e-5
1.211,   2.365e-5
1.213,   2.380e-5
1.215,   2.390e-5
1.217,   2.424e-5
1.219,   2.398e-5
1.221,   2.398e-5
1.223,   2.439e-5
1.225,   2.421e-5
1.227,   2.446e-5
1.229,   2.394e-5
1.231,   2.421e-5
1.233,   2.474e-5
1.235,   2.551e-5
1.237,   2.474e-5
1.239,   2.525e-5
1.241,   2.544e-5
1.243,   2.521e-5
1.245,   2.585e-5
1.247,   2.526e-5
1.249,   2.496e-5
1.251,   2.584e-5
1.253,   2.435e-5
1.255,   2.577e-5
1.257,   2.630e-5
1.259,   2.545e-5
1.261,   2.582e-5
1.263,   2.583e-5
1.265,   2.636e-5
1.267,   2.569e-5
1.269,   2.533e-5
1.271,   2.729e-5
1.273,   2.651e-5
1.275,   2.611e-5
1.277,   2.585e-5
1.279,   2.700e-5
1.281,   2.746e-5
1.283,   2.697e-5
1.285,   2.603e-5
1.287,   2.633e-5
1.289,   2.725e-5
1.291,   2.734e-5
1.293,   2.784e-5
1.295,   2.751e-5
1.297,   2.754e-5
1.299,   2.587e-5
1.301,   2.805e-5
1.303,   2.764e-5
1.305,   3.039e-5
1.307,   2.897e-5
1.309,   2.808e-5
1.311,   2.800e-5
1.313,   2.866e-5
1.315,   2.906e-5
1.317,   2.899e-5
1.319,   2.888e-5
1.321,   2.933e-5
1.323,   3.003e-5
1.325,   3.488e-5
1.327,   2.794e-5
1.329,   3.343e-5
1.331,   2.878e-5
1.333,   2.005e-5
1.335,   2.969e-5
1.337,   3.107e-5
1.339,   3.074e-5
1.341,   3.144e-5
1.343,   3.458e-5
1.345,   3.065e-5
1.347,   3.022e-5
1.349,   3.506e-5
1.351,   3.327e-5
1.353,   3.371e-5
1.355,   2.558e-5
1.357,   3.994e-5
1.359,   3.271e-5
1.361,   3.947e-5
1.363,   4.135e-5
1.365,   4.355e-5
1.367,   3.661e-5
1.369,   4.028e-5
1.371,   4.071e-5
1.373,   4.365e-5
1.375,   4.717e-5
1.377,   4.869e-5
1.379,   5.926e-5
1.381,   5.066e-5
1.383,   5.879e-5
1.385,   8.488e-5
1.387,   7.214e-5
1.389,   8.218e-5
1.391,   8.752e-5
1.393,   9.285e-5
1.395,   7.611e-5
1.397,   9.730e-5
1.399,   1.234e-4
1.401,   1.139e-4
1.403,   1.410e-4
1.405,   1.547e-4
1.407,   1.628e-4
1.409,   2.228e-4
1.411,   2.070e-4
1.413,   2.381e-4
1.415,   3.147e-4
1.417,   3.537e-4
1.419,   3.828e-4
1.421,   3.467e-4
1.423,   4.198e-4
1.425,   4.619e-4
1.427,   5.962e-4
1.429,   5.119e-4
1.431,   6.762e-4
1.433,   7.795e-4
1.435,   7.815e-4
1.437,   9.087e-4
1.439,   1.069e-3
1.441,   1.116e-3
1.443,   1.197e-3
1.445,   1.159e-3
1.447,   1.378e-3
1.449,   1.527e-3
1.451,   1.786e-3
1.453,   1.894e-3
1.455,   2.067e-3
1.457,   1.985e-3
1.459,   2.282e-3
1.461,   2.077e-3
1.463,   2.618e-3
1.465,   2.876e-3
1.467,   3.817e-3
1.469,   3.780e-3
1.471,   3.744e-3
1.473,   3.960e-3
1.475,   3.375e-3
1.477,   4.674e-3
1.479,   4.348e-3
1.481,   4.647e-3
1.483,   5.264e-3
1.485,   4.336e-3
1.487,   5.817e-3
1.489,   5.595e-3
1.491,   6.038e-3
1.493,   6.665e-3
1.495,   6.252e-3
1.497,   5.909e-3
1.499,   5.622e-3
1.501,   7.416e-3
1.503,   8.600e-3
1.505,   8.185e-3
1.507,   7.236e-3
1.509,   8.544e-3
1.510,   7.547e-3

File: B1_BEST_400_#9_Full-206mV.txt
Dec. 8, 2022   16:53:49
Linear Sweep Voltammetry
File: d:\current work\al_oer\electrochemical test data\batch 1\400\B1_BEST_400_#9_Full-206mV.txt
Data Source:  Experiment
Instrument Model:  CHI660E
Header:
Note:

Init E (V) = 1.091

Final E (V) = 1.475

Scan Rate (V/s) = 0.010
Sample Interval (V) = 0.001
Quiet Time (sec) = 2
Sensitivity (A/V) = 0.001
Comp R (ohm) = 5.9

Results:

Channel 1:

Potential/V, Current/A
1.091,   5.127e-5
1.093,   5.700e-5
1.095,   5.279e-5
1.097,   4.937e-5
1.099,   4.695e-5
1.101,   4.492e-5
1.103,   4.318e-5
1.105,   4.178e-5
1.107,   4.064e-5
1.109,   3.985e-5
1.111,   3.909e-5
1.113,   3.825e-5
1.115,   3.777e-5
1.117,   3.743e-5
1.119,   3.705e-5
1.121,   3.664e-5
1.123,   3.627e-5
1.125,   3.623e-5
1.127,   3.594e-5
1.129,   3.575e-5
1.131,   3.559e-5
1.133,   3.550e-5
1.135,   3.549e-5
1.137,   3.532e-5
1.139,   3.526e-5
1.141,   3.530e-5
1.143,   3.527e-5
1.145,   3.524e-5
1.147,   3.523e-5
1.149,   3.539e-5
1.151,   3.545e-5
1.153,   3.539e-5
1.155,   3.540e-5
1.157,   3.565e-5
1.159,   3.569e-5
1.161,   3.565e-5
1.163,   3.580e-5
1.165,   3.596e-5
1.167,   3.600e-5
1.169,   3.608e-5
1.171,   3.615e-5
1.173,   3.636e-5
1.175,   3.648e-5
1.177,   3.645e-5
1.179,   3.664e-5
1.181,   3.679e-5
1.183,   3.693e-5
1.185,   3.697e-5
1.187,   3.706e-5
1.189,   3.732e-5
1.191,   3.735e-5
1.193,   3.738e-5
1.195,   3.750e-5
1.197,   3.769e-5
1.199,   3.779e-5
1.201,   3.797e-5
1.203,   3.796e-5
1.205,   3.815e-5
1.207,   3.831e-5
1.209,   3.828e-5
1.211,   3.839e-5
1.213,   3.864e-5
1.215,   3.870e-5
1.217,   3.879e-5
1.219,   3.882e-5
1.221,   3.913e-5
1.223,   3.923e-5
1.225,   3.920e-5
1.227,   3.937e-5
1.229,   3.954e-5
1.231,   3.956e-5
1.233,   3.969e-5
1.235,   3.971e-5
1.237,   3.990e-5
1.239,   4.002e-5
1.241,   4.002e-5
1.243,   4.013e-5
1.245,   4.027e-5
1.247,   4.031e-5
1.249,   4.035e-5
1.251,   4.039e-5
1.253,   4.068e-5
1.255,   4.072e-5
1.257,   4.083e-5
1.259,   4.088e-5
1.261,   4.100e-5
1.263,   4.107e-5
1.265,   4.124e-5
1.267,   4.118e-5
1.269,   4.142e-5
1.271,   4.156e-5
1.273,   4.150e-5
1.275,   4.164e-5
1.277,   4.184e-5
1.279,   4.190e-5
1.281,   4.192e-5
1.283,   4.207e-5
1.285,   4.229e-5
1.287,   4.232e-5
1.289,   4.234e-5
1.291,   4.259e-5
1.293,   4.277e-5
1.295,   4.286e-5
1.297,   4.294e-5
1.299,   4.298e-5
1.301,   4.328e-5
1.303,   4.341e-5
1.305,   4.346e-5
1.307,   4.362e-5
1.309,   4.387e-5
1.311,   4.409e-5
1.313,   4.423e-5
1.315,   4.434e-5
1.317,   4.488e-5
1.319,   4.488e-5
1.321,   4.503e-5
1.323,   4.531e-5
1.325,   4.567e-5
1.327,   4.591e-5
1.329,   4.616e-5
1.331,   4.639e-5
1.333,   4.690e-5
1.335,   4.721e-5
1.337,   4.749e-5
1.339,   4.788e-5
1.341,   4.849e-5
1.343,   4.899e-5
1.345,   4.949e-5
1.347,   5.002e-5
1.349,   5.087e-5
1.351,   5.157e-5
1.353,   5.233e-5
1.355,   5.349e-5
1.357,   5.456e-5
1.359,   5.575e-5
1.361,   5.714e-5
1.363,   5.873e-5
1.365,   6.079e-5
1.367,   6.303e-5
1.369,   6.542e-5
1.371,   6.839e-5
1.373,   7.194e-5
1.375,   7.593e-5
1.377,   8.065e-5
1.379,   8.599e-5
1.381,   9.261e-5
1.383,   9.985e-5
1.385,   1.082e-4
1.387,   1.183e-4
1.389,   1.299e-4
1.391,   1.433e-4
1.393,   1.590e-4
1.395,   1.768e-4
1.397,   1.974e-4
1.399,   2.210e-4
1.401,   2.480e-4
1.403,   2.789e-4
1.405,   3.143e-4
1.407,   3.541e-4
1.409,   3.991e-4
1.411,   4.496e-4
1.413,   5.069e-4
1.415,   5.707e-4
1.417,   6.420e-4
1.419,   7.216e-4
1.421,   8.105e-4
1.423,   9.089e-4
1.425,   1.018e-3
1.427,   1.139e-3
1.429,   1.273e-3
1.431,   1.420e-3
1.433,   1.584e-3
1.435,   1.763e-3
1.437,   1.960e-3
1.439,   2.178e-3
1.441,   2.417e-3
1.443,   2.678e-3
1.445,   2.965e-3
1.447,   3.278e-3
1.449,   3.617e-3
1.451,   3.989e-3
1.453,   4.393e-3
1.455,   4.824e-3
1.457,   5.291e-3
1.459,   5.788e-3
1.461,   6.314e-3
1.463,   6.870e-3
1.465,   7.437e-3
1.467,   8.013e-3
1.469,   8.615e-3
1.471,   9.242e-3
1.473,   9.885e-3
1.475,   1.006e-2

File: B1_VARIANCE_400_#3_High_Quality-223mV.txt
Dec. 8, 2022   16:59:22
Linear Sweep Voltammetry
File: d:\current work\al_oer\electrochemical test data\batch 1\400\B1_VARIANCE_400_#3_High_Quality-223mV.txt
Data Source:  Experiment
Instrument Model:  CHI660E
Header:
Note:

Init E (V) = 1.103

Final E (V) = 1.502

Scan Rate (V/s) = 0.010
Sample Interval (V) = 0.001
Quiet Time (sec) = 2
Sensitivity (A/V) = 0.001
Comp R (ohm) = 6.2

Results:

Channel 1:

Potential/V, Current/A
1.103,   4.051e-5
1.105,   4.642e-5
1.107,   4.327e-5
1.109,   4.073e-5
1.111,   3.893e-5
1.113,   3.746e-5
1.115,   3.621e-5
1.117,   3.521e-5
1.119,   3.423e-5
1.121,   3.356e-5
1.123,   3.303e-5
1.125,   3.245e-5
1.127,   3.194e-5
1.129,   3.163e-5
1.131,   3.135e-5
1.133,   3.104e-5
1.135,   3.081e-5
1.137,   3.078e-5
1.139,   3.051e-5
1.141,   3.031e-5
1.143,   3.027e-5
1.145,   3.025e-5
1.147,   3.020e-5
1.149,   3.016e-5
1.151,   3.008e-5
1.153,   3.015e-5
1.155,   3.011e-5
1.157,   3.005e-5
1.159,   3.006e-5
1.161,   3.023e-5
1.163,   3.026e-5
1.165,   3.019e-5
1.167,   3.030e-5
1.169,   3.048e-5
1.171,   3.048e-5
1.173,   3.049e-5
1.175,   3.070e-5
1.177,   3.074e-5
1.179,   3.084e-5
1.181,   3.089e-5
1.183,   3.096e-5
1.185,   3.115e-5
1.187,   3.128e-5
1.189,   3.132e-5
1.191,   3.142e-5
1.193,   3.158e-5
1.195,   3.170e-5
1.197,   3.182e-5
1.199,   3.185e-5
1.201,   3.213e-5
1.203,   3.219e-5
1.205,   3.224e-5
1.207,   3.240e-5
1.209,   3.256e-5
1.211,   3.272e-5
1.213,   3.279e-5
1.215,   3.282e-5
1.217,   3.304e-5
1.219,   3.309e-5
1.221,   3.315e-5
1.223,   3.328e-5
1.225,   3.351e-5
1.227,   3.358e-5
1.229,   3.363e-5
1.231,   3.374e-5
1.233,   3.397e-5
1.235,   3.403e-5
1.237,   3.409e-5
1.239,   3.425e-5
1.241,   3.438e-5
1.243,   3.447e-5
1.245,   3.450e-5
1.247,   3.458e-5
1.249,   3.478e-5
1.251,   3.492e-5
1.253,   3.492e-5
1.255,   3.500e-5
1.257,   3.512e-5
1.259,   3.528e-5
1.261,   3.529e-5
1.263,   3.539e-5
1.265,   3.568e-5
1.267,   3.558e-5
1.269,   3.570e-5
1.271,   3.580e-5
1.273,   3.597e-5
1.275,   3.604e-5
1.277,   3.614e-5
1.279,   3.612e-5
1.281,   3.638e-5
1.283,   3.644e-5
1.285,   3.650e-5
1.287,   3.659e-5
1.289,   3.678e-5
1.291,   3.686e-5
1.293,   3.690e-5
1.295,   3.702e-5
1.297,   3.727e-5
1.299,   3.724e-5
1.301,   3.726e-5
1.303,   3.746e-5
1.305,   3.762e-5
1.307,   3.767e-5
1.309,   3.774e-5
1.311,   3.783e-5
1.313,   3.804e-5
1.315,   3.820e-5
1.317,   3.820e-5
1.319,   3.835e-5
1.321,   3.866e-5
1.323,   3.878e-5
1.325,   3.892e-5
1.327,   3.901e-5
1.329,   3.949e-5
1.331,   3.954e-5
1.333,   3.965e-5
1.335,   3.988e-5
1.337,   4.020e-5
1.339,   4.035e-5
1.341,   4.071e-5
1.343,   4.087e-5
1.345,   4.123e-5
1.347,   4.155e-5
1.349,   4.178e-5
1.351,   4.211e-5
1.353,   4.260e-5
1.355,   4.301e-5
1.357,   4.330e-5
1.359,   4.384e-5
1.361,   4.452e-5
1.363,   4.506e-5
1.365,   4.569e-5
1.367,   4.658e-5
1.369,   4.749e-5
1.371,   4.842e-5
1.373,   4.956e-5
1.375,   5.067e-5
1.377,   5.231e-5
1.379,   5.406e-5
1.381,   5.586e-5
1.383,   5.798e-5
1.385,   6.075e-5
1.387,   6.380e-5
1.389,   6.724e-5
1.391,   7.124e-5
1.393,   7.633e-5
1.395,   8.181e-5
1.397,   8.815e-5
1.399,   9.573e-5
1.401,   1.046e-4
1.403,   1.146e-4
1.405,   1.263e-4
1.407,   1.398e-4
1.409,   1.556e-4
1.411,   1.735e-4
1.413,   1.939e-4
1.415,   2.174e-4
1.417,   2.443e-4
1.419,   2.747e-4
1.421,   3.088e-4
1.423,   3.475e-4
1.425,   3.913e-4
1.427,   4.401e-4
1.429,   4.946e-4
1.431,   5.556e-4
1.433,   6.234e-4
1.435,   6.986e-4
1.437,   7.821e-4
1.439,   8.745e-4
1.441,   9.773e-4
1.443,   1.091e-3
1.445,   1.217e-3
1.447,   1.356e-3
1.449,   1.509e-3
1.451,   1.680e-3
1.453,   1.867e-3
1.455,   2.073e-3
1.457,   2.298e-3
1.459,   2.543e-3
1.461,   2.812e-3
1.463,   3.106e-3
1.465,   3.431e-3
1.467,   3.787e-3
1.469,   4.178e-3
1.471,   4.607e-3
1.473,   5.065e-3
1.475,   5.570e-3
1.477,   6.112e-3
1.479,   6.711e-3
1.481,   7.352e-3
1.483,   8.048e-3
1.485,   8.788e-3
1.487,   9.565e-3
1.489,   1.006e-2
1.491,   1.006e-2
1.493,   1.006e-2
1.495,   1.006e-2
1.497,   1.006e-2
1.499,   1.006e-2
1.501,   1.006e-2
1.502,   1.006e-2

File: B1_VARIANCE_400_#4_Full-323mV.txt
Dec. 6, 2022   17:17:04
Linear Sweep Voltammetry
File: d:\current work\al_oer\electrochemical test data\batch 1\400\B1_VARIANCE_400_#4_Full-323mV.txt
Data Source:  Experiment
Instrument Model:  CHI660E
Header:
Note:

Init E (V) = 1.091

Final E (V) = 1.612

Scan Rate (V/s) = 0.010
Sample Interval (V) = 0.001
Quiet Time (sec) = 2
Sensitivity (A/V) = 0.001
Comp R (ohm) = 4.8

Results:

Channel 1:

Potential/V, Current/A
1.091,   4.420e-5
1.093,   3.943e-5
1.095,   3.511e-5
1.097,   3.156e-5
1.099,   2.868e-5
1.101,   2.631e-5
1.103,   2.444e-5
1.105,   2.285e-5
1.107,   2.148e-5
1.109,   2.039e-5
1.111,   1.942e-5
1.113,   1.851e-5
1.115,   1.772e-5
1.117,   1.708e-5
1.119,   1.649e-5
1.121,   1.595e-5
1.123,   1.541e-5
1.125,   1.503e-5
1.127,   1.468e-5
1.129,   1.430e-5
1.131,   1.399e-5
1.133,   1.375e-5
1.135,   1.350e-5
1.137,   1.327e-5
1.139,   1.305e-5
1.141,   1.287e-5
1.143,   1.274e-5
1.145,   1.256e-5
1.147,   1.242e-5
1.149,   1.232e-5
1.151,   1.220e-5
1.153,   1.216e-5
1.155,   1.204e-5
1.157,   1.195e-5
1.159,   1.185e-5
1.161,   1.176e-5
1.163,   1.175e-5
1.165,   1.169e-5
1.167,   1.165e-5
1.169,   1.156e-5
1.171,   1.157e-5
1.173,   1.152e-5
1.175,   1.150e-5
1.177,   1.149e-5
1.179,   1.151e-5
1.181,   1.148e-5
1.183,   1.146e-5
1.185,   1.148e-5
1.187,   1.148e-5
1.189,   1.141e-5
1.191,   1.142e-5
1.193,   1.146e-5
1.195,   1.148e-5
1.197,   1.149e-5
1.199,   1.153e-5
1.201,   1.154e-5
1.203,   1.162e-5
1.205,   1.165e-5
1.207,   1.162e-5
1.209,   1.166e-5
1.211,   1.169e-5
1.213,   1.173e-5
1.215,   1.182e-5
1.217,   1.182e-5
1.219,   1.185e-5
1.221,   1.194e-5
1.223,   1.197e-5
1.225,   1.202e-5
1.227,   1.209e-5
1.229,   1.217e-5
1.231,   1.219e-5
1.233,   1.227e-5
1.235,   1.234e-5
1.237,   1.241e-5
1.239,   1.254e-5
1.241,   1.253e-5
1.243,   1.265e-5
1.245,   1.273e-5
1.247,   1.286e-5
1.249,   1.290e-5
1.251,   1.298e-5
1.253,   1.310e-5
1.255,   1.318e-5
1.257,   1.326e-5
1.259,   1.337e-5
1.261,   1.353e-5
1.263,   1.363e-5
1.265,   1.381e-5
1.267,   1.392e-5
1.269,   1.404e-5
1.271,   1.421e-5
1.273,   1.432e-5
1.275,   1.447e-5
1.277,   1.461e-5
1.279,   1.475e-5
1.281,   1.489e-5
1.283,   1.506e-5
1.285,   1.523e-5
1.287,   1.542e-5
1.289,   1.560e-5
1.291,   1.578e-5
1.293,   1.594e-5
1.295,   1.618e-5
1.297,   1.639e-5
1.299,   1.655e-5
1.301,   1.682e-5
1.303,   1.702e-5
1.305,   1.724e-5
1.307,   1.748e-5
1.309,   1.772e-5
1.311,   1.794e-5
1.313,   1.822e-5
1.315,   1.846e-5
1.317,   1.882e-5
1.319,   1.909e-5
1.321,   1.933e-5
1.323,   1.964e-5
1.325,   1.993e-5
1.327,   2.025e-5
1.329,   2.053e-5
1.331,   2.091e-5
1.333,   2.123e-5
1.335,   2.187e-5
1.337,   2.204e-5
1.339,   2.225e-5
1.341,   2.255e-5
1.343,   2.299e-5
1.345,   2.341e-5
1.347,   2.384e-5
1.349,   2.425e-5
1.351,   2.467e-5
1.353,   2.532e-5
1.355,   2.569e-5
1.357,   2.621e-5
1.359,   2.674e-5
1.361,   2.736e-5
1.363,   2.789e-5
1.365,   2.865e-5
1.367,   2.941e-5
1.369,   3.024e-5
1.371,   3.111e-5
1.373,   3.217e-5
1.375,   3.327e-5
1.377,   3.451e-5
1.379,   3.582e-5
1.381,   3.744e-5
1.383,   3.914e-5
1.385,   4.096e-5
1.387,   4.305e-5
1.389,   4.544e-5
1.391,   4.800e-5
1.393,   5.088e-5
1.395,   5.404e-5
1.397,   5.745e-5
1.399,   6.123e-5
1.401,   6.552e-5
1.403,   7.027e-5
1.405,   7.539e-5
1.407,   8.076e-5
1.409,   8.641e-5
1.411,   9.285e-5
1.413,   9.965e-5
1.415,   1.069e-4
1.417,   1.149e-4
1.419,   1.233e-4
1.421,   1.326e-4
1.423,   1.421e-4
1.425,   1.521e-4
1.427,   1.629e-4
1.429,   1.742e-4
1.431,   1.863e-4
1.433,   1.989e-4
1.435,   2.122e-4
1.437,   2.262e-4
1.439,   2.411e-4
1.441,   2.565e-4
1.443,   2.733e-4
1.445,   2.913e-4
1.447,   3.097e-4
1.449,   3.286e-4
1.451,   3.489e-4
1.453,   3.702e-4
1.455,   3.927e-4
1.457,   4.158e-4
1.459,   4.399e-4
1.461,   4.647e-4
1.463,   4.912e-4
1.465,   5.186e-4
1.467,   5.464e-4
1.469,   5.756e-4
1.471,   6.046e-4
1.473,   6.362e-4
1.475,   6.670e-4
1.477,   6.984e-4
1.479,   7.298e-4
1.481,   7.617e-4
1.483,   7.948e-4
1.485,   8.306e-4
1.487,   8.639e-4
1.489,   8.988e-4
1.491,   9.348e-4
1.493,   9.711e-4
1.495,   1.004e-3
1.497,   1.044e-3
1.499,   1.079e-3
1.501,   1.117e-3
1.503,   1.153e-3
1.505,   1.189e-3
1.507,   1.230e-3
1.509,   1.265e-3
1.511,   1.298e-3
1.513,   1.339e-3
1.515,   1.379e-3
1.517,   1.416e-3
1.519,   1.454e-3
1.521,   1.482e-3
1.523,   1.516e-3
1.525,   1.550e-3
1.527,   1.584e-3
1.529,   1.614e-3
1.531,   1.650e-3
1.533,   1.675e-3
1.535,   1.709e-3
1.537,   1.746e-3
1.539,   1.770e-3
1.541,   1.802e-3
1.543,   1.824e-3
1.545,   1.857e-3
1.547,   1.887e-3
1.549,   1.912e-3
1.551,   1.930e-3
1.553,   1.952e-3
1.555,   1.993e-3
1.557,   2.041e-3
1.559,   2.066e-3
1.561,   2.083e-3
1.563,   2.104e-3
1.565,   2.126e-3
1.567,   2.149e-3
1.569,   2.171e-3
1.571,   2.189e-3
1.573,   2.218e-3
1.575,   2.231e-3
1.577,   2.237e-3
1.579,   2.270e-3
1.581,   2.296e-3
1.583,   2.315e-3
1.585,   2.332e-3
1.587,   2.353e-3
1.589,   2.374e-3
1.591,   2.392e-3
1.593,   2.401e-3
1.595,   2.419e-3
1.597,   2.435e-3
1.599,   2.446e-3
1.601,   2.465e-3
1.603,   2.479e-3
1.605,   2.503e-3
1.607,   2.523e-3
1.609,   2.529e-3
1.611,   2.543e-3
1.612,   2.544e-3