Folder: DASH/Experimental Records and Raw Data/batch1/final500 (part 2)

File: B1_BEST_500_#20_High_Quality-226mV.txt
Dec. 12, 2022   15:33:56
Linear Sweep Voltammetry
File: d:\current work\al_oer\electrochemical test data\batch 1\500\B1_BEST_500_#20_High_Quality-226mV.txt
Data Source:  Experiment
Instrument Model:  CHI660E
Header:
Note:

Init E (V) = 1.091

Final E (V) = 1.531

Scan Rate (V/s) = 0.010
Sample Interval (V) = 0.001
Quiet Time (sec) = 2
Sensitivity (A/V) = 0.001
Comp R (ohm) = 6.0

Results:

Channel 1:

Potential/V, Current/A
1.091,   3.461e-5
1.093,   3.941e-5
1.095,   3.677e-5
1.097,   3.462e-5
1.099,   3.291e-5
1.101,   3.154e-5
1.103,   3.040e-5
1.105,   2.943e-5
1.107,   2.859e-5
1.109,   2.808e-5
1.111,   2.759e-5
1.113,   2.706e-5
1.115,   2.679e-5
1.117,   2.652e-5
1.119,   2.610e-5
1.121,   2.587e-5
1.123,   2.565e-5
1.125,   2.562e-5
1.127,   2.545e-5
1.129,   2.531e-5
1.131,   2.526e-5
1.133,   2.527e-5
1.135,   2.521e-5
1.137,   2.526e-5
1.139,   2.522e-5
1.141,   2.538e-5
1.143,   2.537e-5
1.145,   2.538e-5
1.147,   2.546e-5
1.149,   2.563e-5
1.151,   2.573e-5
1.153,   2.579e-5
1.155,   2.590e-5
1.157,   2.641e-5
1.159,   2.638e-5
1.161,   2.640e-5
1.163,   2.669e-5
1.165,   2.685e-5
1.167,   2.704e-5
1.169,   2.720e-5
1.171,   2.735e-5
1.173,   2.763e-5
1.175,   2.785e-5
1.177,   2.801e-5
1.179,   2.826e-5
1.181,   2.852e-5
1.183,   2.872e-5
1.185,   2.884e-5
1.187,   2.905e-5
1.189,   2.947e-5
1.191,   2.964e-5
1.193,   2.977e-5
1.195,   3.003e-5
1.197,   3.035e-5
1.199,   3.048e-5
1.201,   3.077e-5
1.203,   3.086e-5
1.205,   3.116e-5
1.207,   3.135e-5
1.209,   3.143e-5
1.211,   3.157e-5
1.213,   3.192e-5
1.215,   3.207e-5
1.217,   3.212e-5
1.219,   3.224e-5
1.221,   3.251e-5
1.223,   3.258e-5
1.225,   3.259e-5
1.227,   3.287e-5
1.229,   3.296e-5
1.231,   3.295e-5
1.233,   3.309e-5
1.235,   3.305e-5
1.237,   3.319e-5
1.239,   3.332e-5
1.241,   3.328e-5
1.243,   3.331e-5
1.245,   3.347e-5
1.247,   3.351e-5
1.249,   3.348e-5
1.251,   3.342e-5
1.253,   3.372e-5
1.255,   3.367e-5
1.257,   3.352e-5
1.259,   3.370e-5
1.261,   3.383e-5
1.263,   3.379e-5
1.265,   3.382e-5
1.267,   3.374e-5
1.269,   3.387e-5
1.271,   3.389e-5
1.273,   3.383e-5
1.275,   3.385e-5
1.277,   3.399e-5
1.279,   3.398e-5
1.281,   3.395e-5
1.283,   3.396e-5
1.285,   3.418e-5
1.287,   3.409e-5
1.289,   3.400e-5
1.291,   3.420e-5
1.293,   3.427e-5
1.295,   3.431e-5
1.297,   3.431e-5
1.299,   3.433e-5
1.301,   3.445e-5
1.303,   3.455e-5
1.305,   3.449e-5
1.307,   3.466e-5
1.309,   3.472e-5
1.311,   3.480e-5
1.313,   3.484e-5
1.315,   3.489e-5
1.317,   3.521e-5
1.319,   3.522e-5
1.321,   3.522e-5
1.323,   3.541e-5
1.325,   3.562e-5
1.327,   3.566e-5
1.329,   3.588e-5
1.331,   3.592e-5
1.333,   3.620e-5
1.335,   3.634e-5
1.337,   3.639e-5
1.339,   3.676e-5
1.341,   3.702e-5
1.343,   3.725e-5
1.345,   3.735e-5
1.347,   3.760e-5
1.349,   3.799e-5
1.351,   3.823e-5
1.353,   3.856e-5
1.355,   3.907e-5
1.357,   3.953e-5
1.359,   3.991e-5
1.361,   4.049e-5
1.363,   4.102e-5
1.365,   4.191e-5
1.367,   4.272e-5
1.369,   4.354e-5
1.371,   4.454e-5
1.373,   4.582e-5
1.375,   4.721e-5
1.377,   4.872e-5
1.379,   5.050e-5
1.381,   5.277e-5
1.383,   5.514e-5
1.385,   5.770e-5
1.387,   6.099e-5
1.389,   6.476e-5
1.391,   6.901e-5
1.393,   7.389e-5
1.395,   7.948e-5
1.397,   8.614e-5
1.399,   9.348e-5
1.401,   1.017e-4
1.403,   1.113e-4
1.405,   1.223e-4
1.407,   1.346e-4
1.409,   1.482e-4
1.411,   1.639e-4
1.413,   1.818e-4
1.415,   2.013e-4
1.417,   2.231e-4
1.419,   2.481e-4
1.421,   2.758e-4
1.423,   3.066e-4
1.425,   3.409e-4
1.427,   3.792e-4
1.429,   4.223e-4
1.431,   4.706e-4
1.433,   5.242e-4
1.435,   5.837e-4
1.437,   6.514e-4
1.439,   7.271e-4
1.441,   8.109e-4
1.443,   9.043e-4
1.445,   1.011e-3
1.447,   1.126e-3
1.449,   1.255e-3
1.451,   1.400e-3
1.453,   1.563e-3
1.455,   1.739e-3
1.457,   1.933e-3
1.459,   2.144e-3
1.461,   2.375e-3
1.463,   2.622e-3
1.465,   2.885e-3
1.467,   3.164e-3
1.469,   3.462e-3
1.471,   3.781e-3
1.473,   4.128e-3
1.475,   4.494e-3
1.477,   4.870e-3
1.479,   5.265e-3
1.481,   5.669e-3
1.483,   6.085e-3
1.485,   6.492e-3
1.487,   6.917e-3
1.489,   7.357e-3
1.491,   7.803e-3
1.493,   8.258e-3
1.495,   8.711e-3
1.497,   9.173e-3
1.499,   9.601e-3
1.501,   1.004e-2
1.503,   1.006e-2
1.505,   1.006e-2
1.507,   1.006e-2
1.509,   1.006e-2
1.511,   1.006e-2
1.513,   1.006e-2
1.515,   1.006e-2
1.517,   1.006e-2
1.519,   1.006e-2
1.521,   1.006e-2
1.523,   1.006e-2
1.525,   1.006e-2
1.527,   1.006e-2
1.529,   1.006e-2
1.531,   1.006e-2

File: B1_BEST_500_#21_High_Quality-221mV.txt
Dec. 14, 2022   15:08:39
Linear Sweep Voltammetry
File: d:\current work\al_oer\electrochemical test data\batch 1\500\B1_BEST_500_#21_High_Quality-221mV.txt
Data Source:  Experiment
Instrument Model:  CHI660E
Header:
Note:

Init E (V) = 1.085

Final E (V) = 1.499

Scan Rate (V/s) = 0.010
Sample Interval (V) = 0.001
Quiet Time (sec) = 2
Sensitivity (A/V) = 0.001
Comp R (ohm) = 6.0

Results:

Channel 1:

Potential/V, Current/A
1.085,   4.523e-5
1.087,   4.885e-5
1.089,   4.515e-5
1.091,   4.225e-5
1.093,   3.991e-5
1.095,   3.804e-5
1.097,   3.682e-5
1.099,   3.556e-5
1.101,   3.450e-5
1.103,   3.378e-5
1.105,   3.310e-5
1.107,   3.237e-5
1.109,   3.187e-5
1.111,   3.151e-5
1.113,   3.109e-5
1.115,   3.085e-5
1.117,   3.048e-5
1.119,   3.051e-5
1.121,   3.021e-5
1.123,   3.000e-5
1.125,   2.998e-5
1.127,   2.997e-5
1.129,   3.000e-5
1.131,   2.977e-5
1.133,   2.975e-5
1.135,   2.996e-5
1.137,   2.974e-5
1.139,   2.990e-5
1.141,   2.987e-5
1.143,   3.016e-5
1.145,   3.002e-5
1.147,   3.001e-5
1.149,   3.018e-5
1.151,   3.028e-5
1.153,   3.055e-5
1.155,   3.054e-5
1.157,   3.074e-5
1.159,   3.091e-5
1.161,   3.103e-5
1.163,   3.111e-5
1.165,   3.112e-5
1.167,   3.148e-5
1.169,   3.158e-5
1.171,   3.165e-5
1.173,   3.184e-5
1.175,   3.197e-5
1.177,   3.208e-5
1.179,   3.227e-5
1.181,   3.249e-5
1.183,   3.274e-5
1.185,   3.273e-5
1.187,   3.289e-5
1.189,   3.310e-5
1.191,   3.327e-5
1.193,   3.348e-5
1.195,   3.373e-5
1.197,   3.370e-5
1.199,   3.392e-5
1.201,   3.411e-5
1.203,   3.400e-5
1.205,   3.411e-5
1.207,   3.447e-5
1.209,   3.447e-5
1.211,   3.459e-5
1.213,   3.464e-5
1.215,   3.485e-5
1.217,   3.499e-5
1.219,   3.494e-5
1.221,   3.523e-5
1.223,   3.508e-5
1.225,   3.513e-5
1.227,   3.519e-5
1.229,   3.518e-5
1.231,   3.545e-5
1.233,   3.544e-5
1.235,   3.537e-5
1.237,   3.539e-5
1.239,   3.545e-5
1.241,   3.561e-5
1.243,   3.533e-5
1.245,   3.544e-5
1.247,   3.565e-5
1.249,   3.557e-5
1.251,   3.547e-5
1.253,   3.545e-5
1.255,   3.548e-5
1.257,   3.564e-5
1.259,   3.548e-5
1.261,   3.541e-5
1.263,   3.560e-5
1.265,   3.557e-5
1.267,   3.538e-5
1.269,   3.548e-5
1.271,   3.560e-5
1.273,   3.565e-5
1.275,   3.545e-5
1.277,   3.544e-5
1.279,   3.548e-5
1.281,   3.548e-5
1.283,   3.542e-5
1.285,   3.547e-5
1.287,   3.550e-5
1.289,   3.553e-5
1.291,   3.547e-5
1.293,   3.537e-5
1.295,   3.563e-5
1.297,   3.570e-5
1.299,   3.565e-5
1.301,   3.562e-5
1.303,   3.581e-5
1.305,   3.590e-5
1.307,   3.594e-5
1.309,   3.597e-5
1.311,   3.623e-5
1.313,   3.634e-5
1.315,   3.655e-5
1.317,   3.651e-5
1.319,   3.655e-5
1.321,   3.662e-5
1.323,   3.677e-5
1.325,   3.686e-5
1.327,   3.699e-5
1.329,   3.714e-5
1.331,   3.728e-5
1.333,   3.750e-5
1.335,   3.769e-5
1.337,   3.798e-5
1.339,   3.821e-5
1.341,   3.842e-5
1.343,   3.891e-5
1.345,   3.936e-5
1.347,   3.975e-5
1.349,   4.018e-5
1.351,   4.057e-5
1.353,   4.109e-5
1.355,   4.162e-5
1.357,   4.231e-5
1.359,   4.321e-5
1.361,   4.424e-5
1.363,   4.512e-5
1.365,   4.627e-5
1.367,   4.766e-5
1.369,   4.928e-5
1.371,   5.099e-5
1.373,   5.311e-5
1.375,   5.585e-5
1.377,   5.902e-5
1.379,   6.236e-5
1.381,   6.558e-5
1.383,   6.973e-5
1.385,   7.480e-5
1.387,   8.074e-5
1.389,   8.729e-5
1.391,   9.504e-5
1.393,   1.037e-4
1.395,   1.138e-4
1.397,   1.250e-4
1.399,   1.378e-4
1.401,   1.525e-4
1.403,   1.688e-4
1.405,   1.869e-4
1.407,   2.075e-4
1.409,   2.305e-4
1.411,   2.560e-4
1.413,   2.851e-4
1.415,   3.171e-4
1.417,   3.526e-4
1.419,   3.919e-4
1.421,   4.350e-4
1.423,   4.847e-4
1.425,   5.380e-4
1.427,   5.959e-4
1.429,   6.593e-4
1.431,   7.291e-4
1.433,   8.098e-4
1.435,   8.946e-4
1.437,   9.829e-4
1.439,   1.083e-3
1.441,   1.191e-3
1.443,   1.310e-3
1.445,   1.442e-3
1.447,   1.580e-3
1.449,   1.739e-3
1.451,   1.899e-3
1.453,   2.080e-3
1.455,   2.276e-3
1.457,   2.489e-3
1.459,   2.726e-3
1.461,   2.979e-3
1.463,   3.247e-3
1.465,   3.538e-3
1.467,   3.846e-3
1.469,   4.175e-3
1.471,   4.541e-3
1.473,   4.923e-3
1.475,   5.332e-3
1.477,   5.762e-3
1.479,   6.197e-3
1.481,   6.665e-3
1.483,   7.196e-3
1.485,   7.718e-3
1.487,   8.249e-3
1.489,   8.955e-3
1.491,   9.483e-3
1.493,   1.005e-2
1.495,   1.006e-2
1.497,   1.006e-2
1.499,   1.006e-2

File: B1_VARIANCE_500_#4_High_Quality-391mV.txt
Dec. 12, 2022   14:25:24
Linear Sweep Voltammetry
File: d:\current work\al_oer\electrochemical test data\batch 1\500\B1_VARIANCE_500_#4_High_Quality-391mV.txt
Data Source:  Experiment
Instrument Model:  CHI660E
Header:
Note:

Init E (V) = 1.097

Final E (V) = 1.796

Scan Rate (V/s) = 0.010
Sample Interval (V) = 0.001
Quiet Time (sec) = 2
Sensitivity (A/V) = 0.001
Comp R (ohm) = 4.9

Results:

Channel 1:

Potential/V, Current/A
1.097,   4.474e-5
1.100,   3.753e-5
1.103,   3.173e-5
1.106,   2.772e-5
1.109,   2.465e-5
1.112,   2.224e-5
1.115,   2.052e-5
1.118,   1.905e-5
1.121,   1.801e-5
1.124,   1.706e-5
1.127,   1.631e-5
1.130,   1.572e-5
1.133,   1.515e-5
1.136,   1.470e-5
1.139,   1.433e-5
1.142,   1.400e-5
1.145,   1.364e-5
1.148,   1.343e-5
1.151,   1.324e-5
1.154,   1.306e-5
1.157,   1.287e-5
1.160,   1.276e-5
1.163,   1.267e-5
1.166,   1.247e-5
1.169,   1.245e-5
1.172,   1.233e-5
1.175,   1.221e-5
1.178,   1.216e-5
1.181,   1.219e-5
1.184,   1.213e-5
1.187,   1.206e-5
1.190,   1.201e-5
1.193,   1.199e-5
1.196,   1.196e-5
1.199,   1.205e-5
1.202,   1.237e-5
1.205,   1.223e-5
1.208,   1.217e-5
1.211,   1.220e-5
1.214,   1.216e-5
1.217,   1.226e-5
1.220,   1.226e-5
1.223,   1.221e-5
1.226,   1.220e-5
1.229,   1.224e-5
1.232,   1.224e-5
1.235,   1.230e-5
1.238,   1.234e-5
1.241,   1.249e-5
1.244,   1.234e-5
1.247,   1.234e-5
1.250,   1.237e-5
1.253,   1.244e-5
1.256,   1.259e-5
1.259,   1.253e-5
1.262,   1.255e-5
1.265,   1.259e-5
1.268,   1.261e-5
1.271,   1.272e-5
1.274,   1.280e-5
1.277,   1.285e-5
1.280,   1.289e-5
1.283,   1.300e-5
1.286,   1.313e-5
1.289,   1.314e-5
1.292,   1.319e-5
1.295,   1.324e-5
1.298,   1.340e-5
1.301,   1.348e-5
1.304,   1.358e-5
1.307,   1.366e-5
1.310,   1.381e-5
1.313,   1.388e-5
1.316,   1.400e-5
1.319,   1.408e-5
1.322,   1.423e-5
1.325,   1.433e-5
1.328,   1.453e-5
1.331,   1.464e-5
1.334,   1.482e-5
1.337,   1.493e-5
1.340,   1.516e-5
1.343,   1.533e-5
1.346,   1.555e-5
1.349,   1.576e-5
1.352,   1.596e-5
1.355,   1.616e-5
1.358,   1.642e-5
1.361,   1.664e-5
1.364,   1.687e-5
1.367,   1.714e-5
1.370,   1.744e-5
1.373,   1.773e-5
1.376,   1.802e-5
1.379,   1.837e-5
1.382,   1.877e-5
1.385,   1.918e-5
1.388,   1.965e-5
1.391,   2.016e-5
1.394,   2.085e-5
1.397,   2.152e-5
1.400,   2.241e-5
1.403,   2.325e-5
1.406,   2.433e-5
1.409,   2.567e-5
1.412,   2.732e-5
1.415,   2.919e-5
1.418,   3.146e-5
1.421,   3.404e-5
1.424,   3.716e-5
1.427,   4.083e-5
1.430,   4.525e-5
1.433,   4.999e-5
1.436,   5.613e-5
1.439,   6.215e-5
1.442,   6.915e-5
1.445,   7.814e-5
1.448,   8.762e-5
1.451,   9.788e-5
1.454,   1.099e-4
1.457,   1.230e-4
1.460,   1.381e-4
1.463,   1.550e-4
1.466,   1.733e-4
1.469,   1.937e-4
1.472,   2.149e-4
1.475,   2.385e-4
1.478,   2.634e-4
1.481,   2.896e-4
1.484,   3.186e-4
1.487,   3.483e-4
1.490,   3.816e-4
1.493,   4.151e-4
1.496,   4.484e-4
1.499,   4.852e-4
1.502,   5.231e-4
1.505,   5.210e-4
1.508,   5.628e-4
1.511,   5.983e-4
1.514,   6.330e-4
1.517,   6.689e-4
1.520,   7.057e-4
1.523,   7.443e-4
1.526,   7.823e-4
1.529,   8.132e-4
1.532,   8.512e-4
1.535,   8.749e-4
1.538,   8.806e-4
1.541,   9.379e-4
1.544,   9.885e-4
1.547,   1.034e-3
1.550,   1.083e-3
1.553,   1.128e-3
1.556,   1.184e-3
1.559,   1.216e-3
1.562,   1.214e-3
1.565,   1.152e-3
1.568,   1.229e-3
1.571,   1.284e-3
1.574,   1.332e-3
1.577,   1.382e-3
1.580,   1.378e-3
1.583,   1.440e-3
1.586,   1.486e-3
1.589,   1.545e-3
1.592,   1.600e-3
1.595,   1.665e-3
1.598,   1.563e-3
1.601,   1.668e-3
1.604,   1.736e-3
1.607,   1.788e-3
1.610,   1.800e-3
1.613,   1.847e-3
1.616,   1.912e-3
1.619,   1.912e-3
1.622,   1.963e-3
1.625,   1.998e-3
1.628,   1.976e-3
1.631,   2.041e-3
1.634,   2.098e-3
1.637,   2.153e-3
1.640,   2.127e-3
1.643,   2.195e-3
1.646,   2.256e-3
1.649,   2.254e-3
1.652,   2.170e-3
1.655,   2.247e-3
1.658,   2.278e-3
1.661,   2.234e-3
1.664,   2.264e-3
1.667,   2.277e-3
1.670,   2.288e-3
1.673,   2.348e-3
1.676,   2.326e-3
1.679,   2.379e-3
1.682,   2.383e-3
1.685,   2.303e-3
1.688,   2.379e-3
1.691,   2.417e-3
1.694,   2.436e-3
1.697,   2.423e-3
1.700,   2.358e-3
1.703,   2.426e-3
1.706,   2.466e-3
1.709,   2.436e-3
1.712,   2.412e-3
1.715,   2.472e-3
1.718,   2.428e-3
1.721,   2.446e-3
1.724,   2.442e-3
1.727,   2.432e-3
1.730,   2.436e-3
1.733,   2.413e-3
1.736,   2.431e-3
1.739,   2.419e-3
1.742,   2.475e-3
1.745,   2.473e-3
1.748,   2.506e-3
1.751,   2.278e-3
1.754,   2.365e-3
1.757,   2.387e-3
1.760,   2.406e-3
1.763,   2.400e-3
1.766,   2.387e-3
1.769,   2.423e-3
1.772,   2.386e-3
1.775,   2.411e-3
1.778,   2.335e-3
1.781,   2.331e-3
1.784,   2.304e-3
1.787,   2.280e-3
1.790,   2.271e-3
1.793,   2.194e-3
1.796,   2.187e-3

File: B1_VARIANCE_500_#5_Full-253mV.txt
Dec. 14, 2022   13:55:20
Linear Sweep Voltammetry
File: d:\current work\al_oer\electrochemical test data\batch 1\500\B1_VARIANCE_500_#5_Full-253mV.txt
Data Source:  Experiment
Instrument Model:  CHI660E
Header:
Note:

Init E (V) = 1.094

Final E (V) = 1.581

Scan Rate (V/s) = 0.010
Sample Interval (V) = 0.001
Quiet Time (sec) = 2
Sensitivity (A/V) = 0.001
Comp R (ohm) = 5.8

Results:

Channel 1:

Potential/V, Current/A
1.094,   1.512e-4
1.096,   1.364e-4
1.098,   1.207e-4
1.100,   1.084e-4
1.102,   9.899e-5
1.104,   9.167e-5
1.106,   8.567e-5
1.108,   8.084e-5
1.110,   7.691e-5
1.112,   7.359e-5
1.114,   7.090e-5
1.116,   6.854e-5
1.118,   6.659e-5
1.120,   6.500e-5
1.122,   6.362e-5
1.124,   6.239e-5
1.126,   6.135e-5
1.128,   6.059e-5
1.130,   5.980e-5
1.132,   5.920e-5
1.134,   5.869e-5
1.136,   5.825e-5
1.138,   5.786e-5
1.140,   5.763e-5
1.142,   5.741e-5
1.144,   5.729e-5
1.146,   5.715e-5
1.148,   5.705e-5
1.150,   5.696e-5
1.152,   5.697e-5
1.154,   5.707e-5
1.156,   5.697e-5
1.158,   5.696e-5
1.160,   5.713e-5
1.162,   5.722e-5
1.164,   5.725e-5
1.166,   5.748e-5
1.168,   5.763e-5
1.170,   5.771e-5
1.172,   5.786e-5
1.174,   5.794e-5
1.176,   5.815e-5
1.178,   5.829e-5
1.180,   5.848e-5
1.182,   5.861e-5
1.184,   5.882e-5
1.186,   5.900e-5
1.188,   5.913e-5
1.190,   5.929e-5
1.192,   5.956e-5
1.194,   5.974e-5
1.196,   5.986e-5
1.198,   6.002e-5
1.200,   6.029e-5
1.202,   6.045e-5
1.204,   6.063e-5
1.206,   6.077e-5
1.208,   6.097e-5
1.210,   6.120e-5
1.212,   6.128e-5
1.214,   6.150e-5
1.216,   6.160e-5
1.218,   6.181e-5
1.220,   6.194e-5
1.222,   6.204e-5
1.224,   6.230e-5
1.226,   6.245e-5
1.228,   6.244e-5
1.230,   6.261e-5
1.232,   6.276e-5
1.234,   6.277e-5
1.236,   6.289e-5
1.238,   6.289e-5
1.240,   6.305e-5
1.242,   6.311e-5
1.244,   6.313e-5
1.246,   6.311e-5
1.248,   6.318e-5
1.250,   6.329e-5
1.252,   6.321e-5
1.254,   6.319e-5
1.256,   6.336e-5
1.258,   6.325e-5
1.260,   6.313e-5
1.262,   6.322e-5
1.264,   6.329e-5
1.266,   6.326e-5
1.268,   6.332e-5
1.270,   6.314e-5
1.272,   6.326e-5
1.274,   6.324e-5
1.276,   6.325e-5
1.278,   6.322e-5
1.280,   6.324e-5
1.282,   6.336e-5
1.284,   6.336e-5
1.286,   6.322e-5
1.288,   6.346e-5
1.290,   6.346e-5
1.292,   6.346e-5
1.294,   6.357e-5
1.296,   6.363e-5
1.298,   6.375e-5
1.300,   6.377e-5
1.302,   6.382e-5
1.304,   6.404e-5
1.306,   6.416e-5
1.308,   6.425e-5
1.310,   6.434e-5
1.312,   6.464e-5
1.314,   6.467e-5
1.316,   6.485e-5
1.318,   6.498e-5
1.320,   6.559e-5
1.322,   6.557e-5
1.324,   6.576e-5
1.326,   6.602e-5
1.328,   6.645e-5
1.330,   6.670e-5
1.332,   6.707e-5
1.334,   6.736e-5
1.336,   6.784e-5
1.338,   6.828e-5
1.340,   6.871e-5
1.342,   6.922e-5
1.344,   6.981e-5
1.346,   7.047e-5
1.348,   7.094e-5
1.350,   7.154e-5
1.352,   7.235e-5
1.354,   7.305e-5
1.356,   7.378e-5
1.358,   7.465e-5
1.360,   7.539e-5
1.362,   7.641e-5
1.364,   7.735e-5
1.366,   7.806e-5
1.368,   7.936e-5
1.370,   8.045e-5
1.372,   8.152e-5
1.374,   8.257e-5
1.376,   8.394e-5
1.378,   8.531e-5
1.380,   8.656e-5
1.382,   8.802e-5
1.384,   8.989e-5
1.386,   9.156e-5
1.388,   9.339e-5
1.390,   9.552e-5
1.392,   9.796e-5
1.394,   1.007e-4
1.396,   1.038e-4
1.398,   1.070e-4
1.400,   1.108e-4
1.402,   1.151e-4
1.404,   1.199e-4
1.406,   1.253e-4
1.408,   1.316e-4
1.410,   1.387e-4
1.412,   1.466e-4
1.414,   1.554e-4
1.416,   1.659e-4
1.418,   1.772e-4
1.420,   1.899e-4
1.422,   2.040e-4
1.424,   2.200e-4
1.426,   2.375e-4
1.428,   2.571e-4
1.430,   2.786e-4
1.432,   3.025e-4
1.434,   3.288e-4
1.436,   3.571e-4
1.438,   3.882e-4
1.440,   4.226e-4
1.442,   4.598e-4
1.444,   5.005e-4
1.446,   5.433e-4
1.448,   5.900e-4
1.450,   6.402e-4
1.452,   6.928e-4
1.454,   7.494e-4
1.456,   8.101e-4
1.458,   8.728e-4
1.460,   9.391e-4
1.462,   1.008e-3
1.464,   1.080e-3
1.466,   1.155e-3
1.468,   1.233e-3
1.470,   1.314e-3
1.472,   1.398e-3
1.474,   1.486e-3
1.476,   1.576e-3
1.478,   1.667e-3
1.480,   1.762e-3
1.482,   1.860e-3
1.484,   1.958e-3
1.486,   2.059e-3
1.488,   2.164e-3
1.490,   2.271e-3
1.492,   2.381e-3
1.494,   2.493e-3
1.496,   2.607e-3
1.498,   2.726e-3
1.500,   2.846e-3
1.502,   2.969e-3
1.504,   3.093e-3
1.506,   3.223e-3
1.508,   3.357e-3
1.510,   3.493e-3
1.512,   3.632e-3
1.514,   3.774e-3
1.516,   3.920e-3
1.518,   4.066e-3
1.520,   4.226e-3
1.522,   4.379e-3
1.524,   4.538e-3
1.526,   4.703e-3
1.528,   4.868e-3
1.530,   5.042e-3
1.532,   5.210e-3
1.534,   5.394e-3
1.536,   5.573e-3
1.538,   5.753e-3
1.540,   5.941e-3
1.542,   6.132e-3
1.544,   6.311e-3
1.546,   6.526e-3
1.548,   6.715e-3
1.550,   6.917e-3
1.552,   7.122e-3
1.554,   7.332e-3
1.556,   7.551e-3
1.558,   7.764e-3
1.560,   7.975e-3
1.562,   8.168e-3
1.564,   8.380e-3
1.566,   8.601e-3
1.568,   8.837e-3
1.570,   9.050e-3
1.572,   9.259e-3
1.574,   9.481e-3
1.576,   9.692e-3
1.578,   9.897e-3
1.580,   1.006e-2
1.581,   1.006e-2

File: B1_VARIANCE_500_#7_High_Quality-217mV.txt
Dec. 12, 2022   16:22:02
Linear Sweep Voltammetry
File: d:\current work\al_oer\electrochemical test data\batch 1\500\B1_VARIANCE_500_#7_High_Quality-217mV.txt
Data Source:  Experiment
Instrument Model:  CHI660E
Header:
Note:

Init E (V) = 1.090

Final E (V) = 1.489

Scan Rate (V/s) = 0.010
Sample Interval (V) = 0.001
Quiet Time (sec) = 2
Sensitivity (A/V) = 0.001
Comp R (ohm) = 4.8

Results:

Channel 1:

Potential/V, Current/A
1.090,   7.340e-5
1.092,   6.971e-5
1.094,   6.146e-5
1.096,   5.541e-5
1.098,   5.090e-5
1.100,   4.738e-5
1.102,   4.456e-5
1.104,   4.230e-5
1.106,   4.049e-5
1.108,   3.915e-5
1.110,   3.792e-5
1.112,   3.691e-5
1.114,   3.600e-5
1.116,   3.537e-5
1.118,   3.470e-5
1.120,   3.411e-5
1.122,   3.364e-5
1.124,   3.338e-5
1.126,   3.298e-5
1.128,   3.263e-5
1.130,   3.247e-5
1.132,   3.230e-5
1.134,   3.204e-5
1.136,   3.198e-5
1.138,   3.179e-5
1.140,   3.183e-5
1.142,   3.172e-5
1.144,   3.158e-5
1.146,   3.153e-5
1.148,   3.161e-5
1.150,   3.155e-5
1.152,   3.154e-5
1.154,   3.155e-5
1.156,   3.175e-5
1.158,   3.175e-5
1.160,   3.180e-5
1.162,   3.191e-5
1.164,   3.203e-5
1.166,   3.211e-5
1.168,   3.217e-5
1.170,   3.225e-5
1.172,   3.251e-5
1.174,   3.259e-5
1.176,   3.259e-5
1.178,   3.275e-5
1.180,   3.297e-5
1.182,   3.307e-5
1.184,   3.321e-5
1.186,   3.329e-5
1.188,   3.356e-5
1.190,   3.365e-5
1.192,   3.379e-5
1.194,   3.395e-5
1.196,   3.422e-5
1.198,   3.428e-5
1.200,   3.448e-5
1.202,   3.463e-5
1.204,   3.493e-5
1.206,   3.496e-5
1.208,   3.501e-5
1.210,   3.524e-5
1.212,   3.541e-5
1.214,   3.557e-5
1.216,   3.568e-5
1.218,   3.576e-5
1.220,   3.606e-5
1.222,   3.617e-5
1.224,   3.617e-5
1.226,   3.640e-5
1.228,   3.660e-5
1.230,   3.665e-5
1.232,   3.676e-5
1.234,   3.686e-5
1.236,   3.714e-5
1.238,   3.711e-5
1.240,   3.706e-5
1.242,   3.719e-5
1.244,   3.736e-5
1.246,   3.741e-5
1.248,   3.746e-5
1.250,   3.746e-5
1.252,   3.773e-5
1.254,   3.770e-5
1.256,   3.779e-5
1.258,   3.787e-5
1.260,   3.801e-5
1.262,   3.809e-5
1.264,   3.818e-5
1.266,   3.818e-5
1.268,   3.837e-5
1.270,   3.851e-5
1.272,   3.847e-5
1.274,   3.860e-5
1.276,   3.871e-5
1.278,   3.886e-5
1.280,   3.888e-5
1.282,   3.898e-5
1.284,   3.926e-5
1.286,   3.926e-5
1.288,   3.939e-5
1.290,   3.955e-5
1.292,   4.022e-5
1.294,   4.018e-5
1.296,   4.024e-5
1.298,   4.017e-5
1.300,   4.035e-5
1.302,   4.054e-5
1.304,   4.055e-5
1.306,   4.074e-5
1.308,   4.094e-5
1.310,   4.111e-5
1.312,   4.116e-5
1.314,   4.141e-5
1.316,   4.183e-5
1.318,   4.189e-5
1.320,   4.201e-5
1.322,   4.232e-5
1.324,   4.261e-5
1.326,   4.280e-5
1.328,   4.309e-5
1.330,   4.321e-5
1.332,   4.371e-5
1.334,   4.392e-5
1.336,   4.426e-5
1.338,   4.456e-5
1.340,   4.505e-5
1.342,   4.551e-5
1.344,   4.583e-5
1.346,   4.630e-5
1.348,   4.694e-5
1.350,   4.741e-5
1.352,   4.788e-5
1.354,   4.879e-5
1.356,   4.954e-5
1.358,   5.028e-5
1.360,   5.123e-5
1.362,   5.223e-5
1.364,   5.360e-5
1.366,   5.495e-5
1.368,   5.630e-5
1.370,   5.801e-5
1.372,   6.019e-5
1.374,   6.252e-5
1.376,   6.508e-5
1.378,   6.809e-5
1.380,   7.209e-5
1.382,   7.608e-5
1.384,   8.085e-5
1.386,   8.643e-5
1.388,   9.295e-5
1.390,   1.002e-4
1.392,   1.087e-4
1.394,   1.184e-4
1.396,   1.298e-4
1.398,   1.425e-4
1.400,   1.571e-4
1.402,   1.738e-4
1.404,   1.926e-4
1.406,   2.139e-4
1.408,   2.379e-4
1.410,   2.648e-4
1.412,   2.952e-4
1.414,   3.289e-4
1.416,   3.666e-4
1.418,   4.086e-4
1.420,   4.555e-4
1.422,   5.075e-4
1.424,   5.650e-4
1.426,   6.287e-4
1.428,   6.991e-4
1.430,   7.766e-4
1.432,   8.626e-4
1.434,   9.569e-4
1.436,   1.061e-3
1.438,   1.175e-3
1.440,   1.300e-3
1.442,   1.437e-3
1.444,   1.588e-3
1.446,   1.753e-3
1.448,   1.933e-3
1.450,   2.130e-3
1.452,   2.345e-3
1.454,   2.577e-3
1.456,   2.831e-3
1.458,   3.111e-3
1.460,   3.413e-3
1.462,   3.739e-3
1.464,   4.101e-3
1.466,   4.484e-3
1.468,   4.888e-3
1.470,   5.327e-3
1.472,   5.800e-3
1.474,   6.344e-3
1.476,   6.934e-3
1.478,   7.465e-3
1.480,   8.040e-3
1.482,   8.690e-3
1.484,   9.370e-3
1.486,   1.006e-2
1.488,   1.006e-2
1.489,   1.006e-2