Folder: DASH/Experimental Records and Raw Data/batch1/final500 (part 3)

File: B1_VARIANCE_500_#12_High_Quality-250mV.txt
Dec. 12, 2022   15:24:11
Linear Sweep Voltammetry
File: d:\current work\al_oer\electrochemical test data\batch 1\500\B1_VARIANCE_500_#12_High_Quality-250mV.txt
Data Source:  Experiment
Instrument Model:  CHI660E
Header:
Note:

Init E (V) = 1.096

Final E (V) = 1.529

Scan Rate (V/s) = 0.010
Sample Interval (V) = 0.001
Quiet Time (sec) = 2
Sensitivity (A/V) = 0.001
Comp R (ohm) = 6.2

Results:

Channel 1:

Potential/V, Current/A
1.096,   6.695e-5
1.098,   6.609e-5
1.100,   5.985e-5
1.102,   5.482e-5
1.104,   5.093e-5
1.106,   4.776e-5
1.108,   4.520e-5
1.110,   4.324e-5
1.112,   4.144e-5
1.114,   4.009e-5
1.116,   3.898e-5
1.118,   3.787e-5
1.120,   3.713e-5
1.122,   3.637e-5
1.124,   3.576e-5
1.126,   3.519e-5
1.128,   3.470e-5
1.130,   3.448e-5
1.132,   3.409e-5
1.134,   3.372e-5
1.136,   3.352e-5
1.138,   3.347e-5
1.140,   3.332e-5
1.142,   3.335e-5
1.144,   3.337e-5
1.146,   3.337e-5
1.148,   3.337e-5
1.150,   3.334e-5
1.152,   3.337e-5
1.154,   3.361e-5
1.156,   3.378e-5
1.158,   3.391e-5
1.160,   3.403e-5
1.162,   3.442e-5
1.164,   3.467e-5
1.166,   3.492e-5
1.168,   3.524e-5
1.170,   3.564e-5
1.172,   3.588e-5
1.174,   3.629e-5
1.176,   3.654e-5
1.178,   3.718e-5
1.180,   3.743e-5
1.182,   3.785e-5
1.184,   3.820e-5
1.186,   3.886e-5
1.188,   3.894e-5
1.190,   3.967e-5
1.192,   3.984e-5
1.194,   4.058e-5
1.196,   4.168e-5
1.198,   4.255e-5
1.200,   4.229e-5
1.202,   4.204e-5
1.204,   4.219e-5
1.206,   4.343e-5
1.208,   4.267e-5
1.210,   4.325e-5
1.212,   4.349e-5
1.214,   4.337e-5
1.216,   4.377e-5
1.218,   4.283e-5
1.220,   4.571e-5
1.222,   4.554e-5
1.224,   4.361e-5
1.226,   4.324e-5
1.228,   4.320e-5
1.230,   4.265e-5
1.232,   4.299e-5
1.234,   4.324e-5
1.236,   4.285e-5
1.238,   4.366e-5
1.240,   4.389e-5
1.242,   4.477e-5
1.244,   4.571e-5
1.246,   4.552e-5
1.248,   4.581e-5
1.250,   4.604e-5
1.252,   4.488e-5
1.254,   4.397e-5
1.256,   4.363e-5
1.258,   4.381e-5
1.260,   4.489e-5
1.262,   4.649e-5
1.264,   4.512e-5
1.266,   4.308e-5
1.268,   4.565e-5
1.270,   4.402e-5
1.272,   4.447e-5
1.274,   4.465e-5
1.276,   4.590e-5
1.278,   4.333e-5
1.280,   4.414e-5
1.282,   4.523e-5
1.284,   4.415e-5
1.286,   4.428e-5
1.288,   4.381e-5
1.290,   4.356e-5
1.292,   4.371e-5
1.294,   4.350e-5
1.296,   4.354e-5
1.298,   4.333e-5
1.300,   4.308e-5
1.302,   4.289e-5
1.304,   4.254e-5
1.306,   4.290e-5
1.308,   4.301e-5
1.310,   4.231e-5
1.312,   4.274e-5
1.314,   4.272e-5
1.316,   4.259e-5
1.318,   4.212e-5
1.320,   4.268e-5
1.322,   4.244e-5
1.324,   4.187e-5
1.326,   4.224e-5
1.328,   4.266e-5
1.330,   4.280e-5
1.332,   4.256e-5
1.334,   4.229e-5
1.336,   4.270e-5
1.338,   4.246e-5
1.340,   4.261e-5
1.342,   4.282e-5
1.344,   4.233e-5
1.346,   4.265e-5
1.348,   4.200e-5
1.350,   4.279e-5
1.352,   4.246e-5
1.354,   4.367e-5
1.356,   4.308e-5
1.358,   4.365e-5
1.360,   4.302e-5
1.362,   4.376e-5
1.364,   4.361e-5
1.366,   4.399e-5
1.368,   4.469e-5
1.370,   4.493e-5
1.372,   4.554e-5
1.374,   4.636e-5
1.376,   4.738e-5
1.378,   4.750e-5
1.380,   4.915e-5
1.382,   4.930e-5
1.384,   5.093e-5
1.386,   5.239e-5
1.388,   5.402e-5
1.390,   5.566e-5
1.392,   5.733e-5
1.394,   6.190e-5
1.396,   6.167e-5
1.398,   6.440e-5
1.400,   6.654e-5
1.402,   7.630e-5
1.404,   7.477e-5
1.406,   8.045e-5
1.408,   9.011e-5
1.410,   9.547e-5
1.412,   1.040e-4
1.414,   1.125e-4
1.416,   1.228e-4
1.418,   1.331e-4
1.420,   1.413e-4
1.422,   1.538e-4
1.424,   1.649e-4
1.426,   1.835e-4
1.428,   1.939e-4
1.430,   2.115e-4
1.432,   2.356e-4
1.434,   2.509e-4
1.436,   2.756e-4
1.438,   3.009e-4
1.440,   3.290e-4
1.442,   3.532e-4
1.444,   3.934e-4
1.446,   4.264e-4
1.448,   4.596e-4
1.450,   5.039e-4
1.452,   5.531e-4
1.454,   6.065e-4
1.456,   6.643e-4
1.458,   7.281e-4
1.460,   7.971e-4
1.462,   8.738e-4
1.464,   9.574e-4
1.466,   1.050e-3
1.468,   1.149e-3
1.470,   1.254e-3
1.472,   1.362e-3
1.474,   1.479e-3
1.476,   1.617e-3
1.478,   1.758e-3
1.480,   1.902e-3
1.482,   2.067e-3
1.484,   2.228e-3
1.486,   2.411e-3
1.488,   2.627e-3
1.490,   2.879e-3
1.492,   3.141e-3
1.494,   3.415e-3
1.496,   3.704e-3
1.498,   4.009e-3
1.500,   4.330e-3
1.502,   4.658e-3
1.504,   4.972e-3
1.506,   5.243e-3
1.508,   5.597e-3
1.510,   5.992e-3
1.512,   6.408e-3
1.514,   7.021e-3
1.516,   7.762e-3
1.518,   8.277e-3
1.520,   8.557e-3
1.522,   9.160e-3
1.524,   9.430e-3
1.526,   9.630e-3
1.528,   1.003e-2
1.529,   1.006e-2

File: B1_VARIANCE_500_#13_High_Quality-239mV.txt
Dec. 12, 2022   15:19:35
Linear Sweep Voltammetry
File: d:\current work\al_oer\electrochemical test data\batch 1\500\B1_VARIANCE_500_#13_High_Quality-239mV.txt
Data Source:  Experiment
Instrument Model:  CHI660E
Header:
Note:

Init E (V) = 1.093

Final E (V) = 1.515

Scan Rate (V/s) = 0.010
Sample Interval (V) = 0.001
Quiet Time (sec) = 2
Sensitivity (A/V) = 0.001
Comp R (ohm) = 6.2

Results:

Channel 1:

Potential/V, Current/A
1.093,   8.547e-5
1.095,   8.405e-5
1.097,   7.656e-5
1.099,   7.042e-5
1.101,   6.534e-5
1.103,   6.116e-5
1.105,   5.782e-5
1.107,   5.507e-5
1.109,   5.274e-5
1.111,   5.103e-5
1.113,   4.924e-5
1.115,   4.771e-5
1.117,   4.640e-5
1.119,   4.539e-5
1.121,   4.442e-5
1.123,   4.355e-5
1.125,   4.289e-5
1.127,   4.254e-5
1.129,   4.212e-5
1.131,   4.151e-5
1.133,   4.111e-5
1.135,   4.081e-5
1.137,   4.056e-5
1.139,   4.041e-5
1.141,   4.010e-5
1.143,   4.019e-5
1.145,   4.011e-5
1.147,   4.005e-5
1.149,   4.014e-5
1.151,   4.034e-5
1.153,   4.036e-5
1.155,   4.050e-5
1.157,   4.057e-5
1.159,   4.075e-5
1.161,   4.098e-5
1.163,   4.100e-5
1.165,   4.153e-5
1.167,   4.181e-5
1.169,   4.224e-5
1.171,   4.253e-5
1.173,   4.304e-5
1.175,   4.287e-5
1.177,   4.338e-5
1.179,   4.435e-5
1.181,   4.461e-5
1.183,   4.549e-5
1.185,   4.544e-5
1.187,   4.571e-5
1.189,   4.648e-5
1.191,   4.589e-5
1.193,   4.532e-5
1.195,   4.839e-5
1.197,   5.004e-5
1.199,   5.007e-5
1.201,   4.946e-5
1.203,   4.530e-5
1.205,   4.989e-5
1.207,   4.802e-5
1.209,   5.194e-5
1.211,   4.620e-5
1.213,   4.790e-5
1.215,   5.143e-5
1.217,   5.293e-5
1.219,   5.279e-5
1.221,   5.178e-5
1.223,   4.996e-5
1.225,   4.810e-5
1.227,   5.066e-5
1.229,   5.463e-5
1.231,   5.147e-5
1.233,   4.964e-5
1.235,   5.430e-5
1.237,   5.151e-5
1.239,   5.031e-5
1.241,   5.492e-5
1.243,   5.040e-5
1.245,   5.102e-5
1.247,   5.508e-5
1.249,   5.023e-5
1.251,   5.015e-5
1.253,   5.456e-5
1.255,   5.326e-5
1.257,   4.951e-5
1.259,   4.862e-5
1.261,   5.111e-5
1.263,   5.294e-5
1.265,   5.419e-5
1.267,   5.422e-5
1.269,   5.371e-5
1.271,   5.258e-5
1.273,   4.954e-5
1.275,   4.710e-5
1.277,   5.016e-5
1.279,   5.418e-5
1.281,   4.816e-5
1.283,   5.064e-5
1.285,   5.051e-5
1.287,   4.991e-5
1.289,   4.813e-5
1.291,   5.296e-5
1.293,   4.816e-5
1.295,   4.654e-5
1.297,   4.887e-5
1.299,   5.019e-5
1.301,   5.031e-5
1.303,   5.082e-5
1.305,   4.914e-5
1.307,   4.669e-5
1.309,   4.633e-5
1.311,   4.922e-5
1.313,   4.937e-5
1.315,   4.668e-5
1.317,   4.890e-5
1.319,   4.661e-5
1.321,   4.873e-5
1.323,   4.760e-5
1.325,   4.838e-5
1.327,   4.782e-5
1.329,   4.794e-5
1.331,   4.709e-5
1.333,   4.787e-5
1.335,   4.784e-5
1.337,   4.850e-5
1.339,   4.750e-5
1.341,   4.839e-5
1.343,   4.800e-5
1.345,   4.798e-5
1.347,   4.853e-5
1.349,   4.826e-5
1.351,   4.818e-5
1.353,   4.867e-5
1.355,   4.912e-5
1.357,   4.879e-5
1.359,   4.916e-5
1.361,   5.000e-5
1.363,   4.988e-5
1.365,   5.013e-5
1.367,   5.154e-5
1.369,   5.149e-5
1.371,   5.353e-5
1.373,   5.262e-5
1.375,   5.396e-5
1.377,   5.690e-5
1.379,   5.540e-5
1.381,   5.939e-5
1.383,   5.956e-5
1.385,   6.047e-5
1.387,   6.268e-5
1.389,   6.696e-5
1.391,   7.479e-5
1.393,   7.174e-5
1.395,   7.812e-5
1.397,   8.432e-5
1.399,   8.690e-5
1.401,   9.777e-5
1.403,   1.028e-4
1.405,   1.121e-4
1.407,   1.191e-4
1.409,   1.331e-4
1.411,   1.421e-4
1.413,   1.563e-4
1.415,   1.661e-4
1.417,   1.824e-4
1.419,   2.003e-4
1.421,   2.150e-4
1.423,   2.401e-4
1.425,   2.614e-4
1.427,   2.796e-4
1.429,   3.108e-4
1.431,   3.374e-4
1.433,   3.676e-4
1.435,   3.996e-4
1.437,   4.434e-4
1.439,   4.779e-4
1.441,   5.210e-4
1.443,   5.740e-4
1.445,   6.288e-4
1.447,   6.872e-4
1.449,   7.549e-4
1.451,   8.352e-4
1.453,   9.196e-4
1.455,   9.997e-4
1.457,   1.100e-3
1.459,   1.214e-3
1.461,   1.322e-3
1.463,   1.448e-3
1.465,   1.595e-3
1.467,   1.741e-3
1.469,   1.895e-3
1.471,   2.069e-3
1.473,   2.260e-3
1.475,   2.454e-3
1.477,   2.668e-3
1.479,   2.944e-3
1.481,   3.240e-3
1.483,   3.542e-3
1.485,   3.867e-3
1.487,   4.195e-3
1.489,   4.550e-3
1.491,   4.918e-3
1.493,   5.266e-3
1.495,   5.651e-3
1.497,   6.398e-3
1.499,   6.815e-3
1.501,   7.200e-3
1.503,   7.569e-3
1.505,   8.226e-3
1.507,   8.609e-3
1.509,   8.805e-3
1.511,   9.970e-3
1.513,   1.006e-2
1.515,   1.006e-2

File: B1_VARIANCE_500_#24_Full-249mV.txt
Dec. 12, 2022   14:35:32
Linear Sweep Voltammetry
File: d:\current work\al_oer\electrochemical test data\batch 1\500\B1_VARIANCE_500_#24_Full-249mV.txt
Data Source:  Experiment
Instrument Model:  CHI660E
Header:
Note:

Init E (V) = 1.087

Final E (V) = 1.629

Scan Rate (V/s) = 0.010
Sample Interval (V) = 0.001
Quiet Time (sec) = 2
Sensitivity (A/V) = 0.001
Comp R (ohm) = 4.9

Results:

Channel 1:

Potential/V, Current/A
1.087,   1.469e-4
1.089,   1.264e-4
1.091,   1.084e-4
1.093,   9.479e-5
1.095,   8.456e-5
1.097,   7.655e-5
1.099,   7.025e-5
1.101,   6.531e-5
1.103,   6.114e-5
1.105,   5.777e-5
1.107,   5.510e-5
1.109,   5.281e-5
1.111,   5.090e-5
1.113,   4.929e-5
1.115,   4.793e-5
1.117,   4.662e-5
1.119,   4.555e-5
1.121,   4.478e-5
1.123,   4.405e-5
1.125,   4.339e-5
1.127,   4.293e-5
1.129,   4.242e-5
1.131,   4.203e-5
1.133,   4.171e-5
1.135,   4.143e-5
1.137,   4.124e-5
1.139,   4.110e-5
1.141,   4.099e-5
1.143,   4.089e-5
1.145,   4.081e-5
1.147,   4.089e-5
1.149,   4.084e-5
1.151,   4.085e-5
1.153,   4.098e-5
1.155,   4.105e-5
1.157,   4.111e-5
1.159,   4.129e-5
1.161,   4.142e-5
1.163,   4.161e-5
1.165,   4.170e-5
1.167,   4.188e-5
1.169,   4.209e-5
1.171,   4.230e-5
1.173,   4.250e-5
1.175,   4.272e-5
1.177,   4.294e-5
1.179,   4.322e-5
1.181,   4.341e-5
1.183,   4.366e-5
1.185,   4.400e-5
1.187,   4.424e-5
1.189,   4.449e-5
1.191,   4.474e-5
1.193,   4.497e-5
1.195,   4.526e-5
1.197,   4.556e-5
1.199,   4.576e-5
1.201,   4.602e-5
1.203,   4.623e-5
1.205,   4.639e-5
1.207,   4.664e-5
1.209,   4.682e-5
1.211,   4.708e-5
1.213,   4.721e-5
1.215,   4.738e-5
1.217,   4.761e-5
1.219,   4.777e-5
1.221,   4.780e-5
1.223,   4.794e-5
1.225,   4.808e-5
1.227,   4.821e-5
1.229,   4.827e-5
1.231,   4.829e-5
1.233,   4.842e-5
1.235,   4.838e-5
1.237,   4.836e-5
1.239,   4.838e-5
1.241,   4.842e-5
1.243,   4.842e-5
1.245,   4.836e-5
1.247,   4.833e-5
1.249,   4.836e-5
1.251,   4.825e-5
1.253,   4.814e-5
1.255,   4.808e-5
1.257,   4.807e-5
1.259,   4.803e-5
1.261,   4.802e-5
1.263,   4.789e-5
1.265,   4.783e-5
1.267,   4.781e-5
1.269,   4.767e-5
1.271,   4.759e-5
1.273,   4.755e-5
1.275,   4.754e-5
1.277,   4.739e-5
1.279,   4.739e-5
1.281,   4.736e-5
1.283,   4.732e-5
1.285,   4.719e-5
1.287,   4.723e-5
1.289,   4.721e-5
1.291,   4.732e-5
1.293,   4.730e-5
1.295,   4.714e-5
1.297,   4.719e-5
1.299,   4.722e-5
1.301,   4.721e-5
1.303,   4.725e-5
1.305,   4.847e-5
1.307,   4.793e-5
1.309,   4.772e-5
1.311,   4.763e-5
1.313,   4.787e-5
1.315,   4.782e-5
1.317,   4.785e-5
1.319,   4.796e-5
1.321,   4.811e-5
1.323,   4.836e-5
1.325,   4.858e-5
1.327,   4.869e-5
1.329,   4.891e-5
1.331,   4.929e-5
1.333,   4.949e-5
1.335,   4.967e-5
1.337,   4.999e-5
1.339,   5.041e-5
1.341,   5.061e-5
1.343,   5.098e-5
1.345,   5.147e-5
1.347,   5.189e-5
1.349,   5.230e-5
1.351,   5.287e-5
1.353,   5.344e-5
1.355,   5.412e-5
1.357,   5.468e-5
1.359,   5.539e-5
1.361,   5.630e-5
1.363,   5.722e-5
1.365,   5.816e-5
1.367,   5.926e-5
1.369,   6.059e-5
1.371,   6.199e-5
1.373,   6.364e-5
1.375,   6.544e-5
1.377,   6.771e-5
1.379,   7.014e-5
1.381,   7.285e-5
1.383,   7.601e-5
1.385,   7.978e-5
1.387,   8.398e-5
1.389,   8.873e-5
1.391,   9.427e-5
1.393,   1.004e-4
1.395,   1.074e-4
1.397,   1.153e-4
1.399,   1.242e-4
1.401,   1.341e-4
1.403,   1.454e-4
1.405,   1.576e-4
1.407,   1.711e-4
1.409,   1.859e-4
1.411,   2.019e-4
1.413,   2.194e-4
1.415,   2.385e-4
1.417,   2.590e-4
1.419,   2.812e-4
1.421,   3.051e-4
1.423,   3.306e-4
1.425,   3.577e-4
1.427,   3.867e-4
1.429,   4.177e-4
1.431,   4.504e-4
1.433,   4.858e-4
1.435,   5.229e-4
1.437,   5.628e-4
1.439,   6.046e-4
1.441,   6.498e-4
1.443,   6.973e-4
1.445,   7.477e-4
1.447,   8.006e-4
1.449,   8.563e-4
1.451,   9.130e-4
1.453,   9.702e-4
1.455,   1.031e-3
1.457,   1.092e-3
1.459,   1.156e-3
1.461,   1.222e-3
1.463,   1.290e-3
1.465,   1.360e-3
1.467,   1.432e-3
1.469,   1.507e-3
1.471,   1.586e-3
1.473,   1.666e-3
1.475,   1.749e-3
1.477,   1.833e-3
1.479,   1.919e-3
1.481,   2.009e-3
1.483,   2.097e-3
1.485,   2.189e-3
1.487,   2.280e-3
1.489,   2.377e-3
1.491,   2.471e-3
1.493,   2.568e-3
1.495,   2.663e-3
1.497,   2.761e-3
1.499,   2.859e-3
1.501,   2.959e-3
1.503,   3.060e-3
1.505,   3.164e-3
1.507,   3.270e-3
1.509,   3.375e-3
1.511,   3.481e-3
1.513,   3.589e-3
1.515,   3.698e-3
1.517,   3.806e-3
1.519,   3.920e-3
1.521,   4.029e-3
1.523,   4.143e-3
1.525,   4.257e-3
1.527,   4.370e-3
1.529,   4.484e-3
1.531,   4.601e-3
1.533,   4.718e-3
1.535,   4.835e-3
1.537,   4.948e-3
1.539,   5.070e-3
1.541,   5.188e-3
1.543,   5.309e-3
1.545,   5.433e-3
1.547,   5.551e-3
1.549,   5.675e-3
1.551,   5.796e-3
1.553,   5.919e-3
1.555,   6.042e-3
1.557,   6.165e-3
1.559,   6.291e-3
1.561,   6.411e-3
1.563,   6.538e-3
1.565,   6.658e-3
1.567,   6.780e-3
1.569,   6.903e-3
1.571,   7.024e-3
1.573,   7.145e-3
1.575,   7.261e-3
1.577,   7.375e-3
1.579,   7.495e-3
1.581,   7.612e-3
1.583,   7.727e-3
1.585,   7.844e-3
1.587,   7.957e-3
1.589,   8.067e-3
1.591,   8.177e-3
1.593,   8.284e-3
1.595,   8.393e-3
1.597,   8.502e-3
1.599,   8.605e-3
1.601,   8.706e-3
1.603,   8.805e-3
1.605,   8.899e-3
1.607,   8.999e-3
1.609,   9.093e-3
1.611,   9.184e-3
1.613,   9.272e-3
1.615,   9.356e-3
1.617,   9.440e-3
1.619,   9.516e-3
1.621,   9.590e-3
1.623,   9.660e-3
1.625,   9.724e-3
1.627,   9.795e-3
1.629,   9.863e-3